ax,ay,az,gx,gy,gz,mx,my,mz,heading,pitch,roll
0.015,-0.537,-0.885,0.048,0.01,-0.09,-28.95,-255.9,-9.45,180.26,-0.02,-0.26
0.028,-0.524,-0.883,0.067,0.014,-0.173,-29.7,-255.15,-9.9,180.51,-0.04,-0.52
0.028,-0.524,-0.883,0.064,0.009,-0.147,-31.2,-255.15,-9.15,180.77,-0.06,-0.78
0.032,-0.519,-0.881,0.045,-0.0,-0.05,-29.85,-255.3,-9.75,181.03,-0.09,-1.04
0.028,-0.524,-0.878,0.003,-0.022,0.161,-31.8,-254.55,-10.35,181.28,-0.11,-1.3
0.028,-0.524,-0.878,-0.01,-0.018,0.203,-30.15,-255.6,-9.9,181.54,-0.12,-1.57
0.008,-0.531,-0.886,-0.007,-0.014,0.168,-29.7,-255.9,-9.45,181.79,-0.13,-1.84
0.01,-0.546,-0.877,0.043,0.007,-0.045,-29.7,-255.9,-9.45,182.03,-0.14,-2.11
0.02,-0.539,-0.88,0.063,0.015,-0.148,-29.85,-255.75,-10.05,182.28,-0.15,-2.38
0.02,-0.539,-0.88,0.074,0.02,-0.197,-29.7,-256.65,-9.9,182.52,-0.16,-2.65
0.029,-0.522,-0.881,0.056,0.006,-0.103,-31.05,-255.3,-10.35,182.77,-0.17,-2.92
0.033,-0.52,-0.874,0.031,-0.001,0.017,-31.65,-255.9,-10.2,183.01,-0.18,-3.19
0.033,-0.52,-0.874,0.01,-0.01,0.125,-31.65,-255.9,-10.2,183.25,-0.2,-3.47
0.013,-0.533,-0.884,-0.002,-0.015,0.192,-29.25,-254.55,-9.3,183.5,-0.2,-3.75
0.01,-0.536,-0.885,0.008,-0.005,0.122,-29.55,-255.3,-9.3,183.73,-0.2,-4.02
0.011,-0.535,-0.893,0.027,0.0,0.015,-29.4,-255.9,-9.45,183.97,-0.19,-4.3
0.011,-0.535,-0.893,0.076,0.017,-0.179,-29.85,-255.3,-10.05,184.21,-0.19,-4.58
0.027,-0.524,-0.877,0.073,0.022,-0.196,-29.85,-255.3,-10.05,184.44,-0.19,-4.86
0.034,-0.518,-0.877,0.048,0.002,-0.042,-31.8,-255.3,-9.75,184.67,-0.2,-5.14
0.034,-0.518,-0.877,0.02,-0.01,0.069,-31.8,-256.05,-10.35,184.91,-0.2,-5.42
0.025,-0.523,-0.882,0.003,-0.019,0.156,-31.65,-255.6,-9.45,185.14,-0.2,-5.7
0.011,-0.536,-0.88,-0.006,-0.011,0.159,-30.3,-255.0,-9.3,185.36,-0.19,-5.99
0.007,-0.535,-0.891,0.017,-0.008,0.067,-30.15,-255.15,-8.7,185.59,-0.17,-6.28
0.007,-0.535,-0.891,0.049,0.006,-0.046,-28.5,-256.5,-8.25,185.81,-0.16,-6.56
0.016,-0.529,-0.883,0.073,0.013,-0.188,-28.95,-254.4,-9.45,186.04,-0.15,-6.85
0.027,-0.519,-0.881,0.065,0.013,-0.17,-31.35,-255.0,-9.3,186.26,-0.14,-7.13
0.027,-0.519,-0.881,0.052,0.005,-0.088,-31.05,-255.3,-8.55,186.48,-0.13,-7.42
0.032,-0.523,-0.879,0.01,-0.015,0.12,-31.2,-254.4,-9.45,186.7,-0.12,-7.71
0.018,-0.53,-0.878,-0.003,-0.017,0.178,-30.15,-255.6,-9.45,186.91,-0.11,-8.0
0.009,-0.537,-0.886,0.009,-0.008,0.111,-30.3,-255.75,-9.75,187.13,-0.08,-8.29
0.009,-0.537,-0.886,0.031,0.004,0.012,-28.95,-255.15,-11.4,187.34,-0.06,-8.59
0.015,-0.536,-0.882,0.05,0.011,-0.098,-29.55,-256.5,-9.3,187.55,-0.04,-8.88
0.027,-0.527,-0.878,0.072,0.016,-0.182,-29.85,-254.55,-10.05,187.76,-0.03,-9.17
0.027,-0.527,-0.878,0.058,0.012,-0.129,-29.85,-254.55,-10.05,187.97,-0.01,-9.46
0.03,-0.522,-0.877,0.04,0.002,-0.033,-29.85,-255.0,-9.75,188.17,0.01,-9.76
0.021,-0.521,-0.886,0.006,-0.013,0.154,-31.35,-255.3,-9.75,188.38,0.03,-10.05
0.007,-0.534,-0.889,-0.003,-0.015,0.189,-30.9,-255.9,-9.15,188.59,0.06,-10.35
0.007,-0.534,-0.889,0.004,-0.013,0.144,-29.7,-254.7,-9.45,188.79,0.09,-10.64
0.007,-0.538,-0.888,0.039,0.007,-0.049,-29.7,-254.7,-9.45,188.99,0.12,-10.94
0.017,-0.533,-0.882,0.064,0.011,-0.137,-28.5,-255.3,-10.8,189.18,0.15,-11.24
0.017,-0.533,-0.882,0.061,0.013,-0.153,-30.9,-254.7,-8.7,189.38,0.18,-11.54
0.031,-0.518,-0.879,0.05,0.004,-0.077,-30.9,-256.35,-9.9,189.57,0.2,-11.83
0.022,-0.526,-0.882,0.03,-0.004,0.024,-31.65,-256.35,-9.9,189.77,0.23,-12.13
0.019,-0.525,-0.882,0.001,-0.017,0.167,-31.65,-256.35,-9.9,189.96,0.26,-12.43
0.019,-0.525,-0.882,0.004,-0.013,0.155,-30.3,-255.75,-9.75,190.15,0.29,-12.73
0.005,-0.535,-0.883,0.014,-0.005,0.094,-30.45,-255.9,-9.9,190.34,0.33,-13.03
0.011,-0.535,-0.881,0.053,0.014,-0.101,-28.2,-255.6,-9.15,190.53,0.37,-13.33
0.011,-0.535,-0.881,0.063,0.014,-0.162,-28.65,-255.6,-10.2,190.71,0.41,-13.63
0.023,-0.526,-0.879,0.064,0.015,-0.158,-30.3,-256.5,-8.25,190.89,0.44,-13.94
0.028,-0.517,-0.876,0.036,-0.001,-0.018,-30.45,-255.9,-9.9,191.07,0.48,-14.24
0.023,-0.527,-0.883,0.018,-0.008,0.077,-31.95,-255.9,-8.4,191.25,0.52,-14.54
0.023,-0.527,-0.883,-0.003,-0.012,0.168,-30.15,-256.65,-9.9,191.43,0.55,-14.84
0.012,-0.533,-0.882,0.007,-0.007,0.122,-27.45,-255.15,-9.45,191.61,0.6,-15.15
0.006,-0.54,-0.883,0.024,0.0,0.038,-28.65,-255.9,-9.45,191.78,0.64,-15.45
0.006,-0.54,-0.883,0.058,0.017,-0.138,-29.85,-255.75,-9.0,191.95,0.69,-15.75
0.015,-0.527,-0.878,0.063,0.013,-0.165,-29.85,-256.05,-9.3,192.12,0.73,-16.06
0.021,-0.521,-0.877,0.058,0.01,-0.138,-31.05,-255.3,-9.3,192.29,0.78,-16.36
0.02,-0.519,-0.878,0.025,-0.004,0.043,-31.35,-255.75,-8.55,192.46,0.82,-16.66
0.02,-0.519,-0.878,0.011,-0.014,0.124,-30.6,-256.05,-9.3,192.63,0.87,-16.97
0.013,-0.54,-0.878,0.002,-0.006,0.151,-30.6,-256.05,-9.3,192.79,0.92,-17.28
0.008,-0.538,-0.883,0.015,-0.003,0.076,-28.8,-255.0,-9.3,192.95,0.97,-17.58
0.008,-0.538,-0.883,0.031,0.003,-0.017,-29.55,-255.75,-10.05,193.11,1.02,-17.89
0.016,-0.533,-0.884,0.065,0.019,-0.151,-30.3,-254.55,-9.3,193.27,1.07,-18.19
0.023,-0.527,-0.88,0.058,0.009,-0.148,-30.3,-253.8,-9.0,193.43,1.12,-18.5
0.027,-0.52,-0.878,0.054,0.008,-0.09,-30.3,-253.8,-9.0,193.59,1.17,-18.81
0.027,-0.52,-0.878,0.016,-0.006,0.081,-30.3,-255.3,-9.75,193.74,1.22,-19.11
0.025,-0.529,-0.879,0.005,-0.014,0.138,-30.15,-254.4,-9.45,193.9,1.27,-19.42
0.013,-0.537,-0.886,0.002,-0.014,0.149,-30.15,-255.6,-10.65,194.05,1.32,-19.73
0.013,-0.537,-0.886,0.034,-0.001,0.029,-29.4,-254.4,-9.45,194.2,1.38,-20.03
0.011,-0.538,-0.885,0.048,0.009,-0.063,-29.4,-254.4,-9.45,194.35,1.43,-20.34
0.016,-0.53,-0.884,0.059,0.012,-0.139,-29.55,-254.25,-10.05,194.49,1.49,-20.65
0.028,-0.523,-0.884,0.052,0.013,-0.115,-31.05,-255.3,-10.05,194.64,1.54,-20.96
0.028,-0.523,-0.884,0.04,0.003,-0.042,-30.6,-255.0,-9.75,194.78,1.6,-21.26
0.026,-0.52,-0.885,0.007,-0.011,0.109,-32.4,-255.15,-9.9,194.92,1.65,-21.57
0.014,-0.529,-0.881,0.003,-0.009,0.139,-29.55,-254.25,-9.3,195.06,1.71,-21.88
0.008,-0.542,-0.883,0.01,-0.015,0.118,-28.8,-255.75,-11.55,195.2,1.77,-22.19
0.008,-0.542,-0.883,0.035,0.0,-0.027,-28.2,-255.6,-9.15,195.34,1.83,-22.5
0.016,-0.534,-0.884,0.05,0.009,-0.097,-29.25,-254.25,-11.1,195.47,1.89,-22.8
0.021,-0.523,-0.875,0.062,0.014,-0.133,-28.95,-255.15,-10.2,195.61,1.95,-23.11
0.021,-0.523,-0.875,0.054,0.003,-0.065,-29.7,-254.4,-10.65,195.74,2.01,-23.42
0.028,-0.52,-0.876,0.031,0.003,0.007,-30.9,-254.7,-9.15,195.87,2.07,-23.73
0.02,-0.524,-0.877,0.006,-0.01,0.126,-30.3,-255.3,-10.35,196.0,2.13,-24.04
0.011,-0.534,-0.88,0.006,-0.011,0.127,-30.15,-255.6,-9.15,196.13,2.2,-24.35
0.011,-0.534,-0.88,0.015,-0.008,0.083,-29.85,-254.55,-10.05,196.25,2.26,-24.66
0.013,-0.535,-0.886,0.044,0.01,-0.065,-28.5,-255.75,-11.1,196.38,2.33,-24.97
0.018,-0.528,-0.88,0.059,0.01,-0.115,-28.65,-255.6,-11.4,196.5,2.39,-25.28
0.018,-0.528,-0.88,0.06,0.012,-0.131,-29.4,-254.7,-9.9,196.62,2.45,-25.59
0.03,-0.52,-0.877,0.039,0.001,-0.029,-28.95,-253.95,-9.9,196.74,2.51,-25.9
0.024,-0.528,-0.882,0.026,-0.006,0.051,-30.15,-256.35,-9.15,196.86,2.58,-26.21
0.015,-0.528,-0.879,0.008,-0.012,0.13,-29.4,-255.9,-9.9,196.98,2.64,-26.52
0.015,-0.528,-0.879,0.014,-0.007,0.1,-29.4,-255.9,-9.9,197.09,2.71,-26.83
0.01,-0.533,-0.882,0.021,-0.007,0.038,-29.25,-256.05,-10.05,197.2,2.78,-27.14
0.021,-0.534,-0.884,0.055,0.009,-0.095,-29.85,-255.0,-10.35,197.32,2.85,-27.45
0.021,-0.534,-0.884,0.057,0.014,-0.118,-28.95,-254.7,-9.9,197.42,2.91,-27.76
0.02,-0.526,-0.874,0.056,0.006,-0.106,-30.3,-255.75,-9.3,197.53,2.98,-28.07
0.028,-0.53,-0.874,0.029,0.002,0.013,-30.3,-255.75,-9.3,197.64,3.04,-28.38
0.016,-0.528,-0.879,0.016,-0.004,0.079,-30.3,-255.75,-9.3,197.74,3.11,-28.69
0.016,-0.528,-0.879,0.011,-0.008,0.12,-29.4,-254.7,-9.45,197.85,3.18,-29.0
0.013,-0.539,-0.886,0.024,-0.002,0.064,-28.65,-255.15,-9.45,197.95,3.25,-29.31
0.009,-0.533,-0.885,0.03,-0.002,-0.006,-27.9,-255.15,-9.15,198.05,3.33,-29.62
0.009,-0.533,-0.885,0.058,0.014,-0.111,-28.8,-254.55,-9.3,198.15,3.4,-29.93
0.018,-0.529,-0.878,0.056,0.006,-0.119,-28.8,-254.55,-9.3,198.25,3.47,-30.24
0.022,-0.521,-0.882,0.046,0.002,-0.076,-30.6,-255.75,-10.05,198.34,3.54,-30.55
0.02,-0.525,-0.879,0.02,-0.006,0.058,-31.65,-254.7,-10.65,198.44,3.61,-30.86
0.02,-0.525,-0.879,0.012,-0.013,0.104,-29.85,-253.8,-10.05,198.53,3.68,-31.17
0.019,-0.529,-0.881,0.01,-0.007,0.12,-29.7,-255.15,-10.95,198.63,3.75,-31.48
0.009,-0.538,-0.883,0.032,0.001,0.025,-29.7,-255.15,-10.95,198.72,3.82,-31.79
0.009,-0.538,-0.883,0.041,0.005,-0.047,-28.8,-255.75,-9.3,198.81,3.9,-32.1
0.013,-0.527,-0.885,0.049,0.011,-0.098,-28.8,-255.75,-10.35,198.89,3.97,-32.41
0.022,-0.523,-0.879,0.054,0.006,-0.091,-29.55,-254.55,-9.0,198.98,4.04,-32.72
0.023,-0.523,-0.881,0.042,0.003,-0.038,-30.3,-256.5,-9.3,199.06,4.11,-33.04
0.023,-0.523,-0.881,0.016,-0.01,0.089,-30.3,-256.5,-9.3,199.15,4.18,-33.35
0.015,-0.525,-0.884,0.01,-0.009,0.11,-30.9,-255.9,-9.45,199.23,4.26,-33.66
0.016,-0.532,-0.884,0.016,-0.005,0.099,-29.4,-255.9,-10.65,199.31,4.33,-33.97
0.016,-0.532,-0.884,0.037,0.002,-0.016,-29.4,-255.15,-10.95,199.39,4.4,-34.28
0.013,-0.533,-0.884,0.048,0.01,-0.073,-28.8,-254.55,-10.05,199.47,4.48,-34.59
0.017,-0.53,-0.877,0.055,0.011,-0.106,-28.8,-254.55,-10.05,199.54,4.55,-34.9
0.023,-0.524,-0.878,0.041,0.005,-0.06,-30.15,-255.15,-9.45,199.62,4.62,-35.21
0.023,-0.524,-0.878,0.038,0.001,0.001,-29.55,-256.5,-9.75,199.69,4.69,-35.53
0.026,-0.523,-0.88,0.025,-0.009,0.063,-29.7,-255.9,-8.7,199.76,4.76,-35.84
0.009,-0.531,-0.884,0.009,-0.005,0.103,-29.55,-255.75,-8.55,199.83,4.84,-36.15
0.009,-0.531,-0.884,0.014,-0.007,0.07,-29.55,-255.75,-8.55,199.9,4.92,-36.46
0.011,-0.531,-0.884,0.043,0.005,-0.053,-29.55,-255.75,-8.55,199.97,4.99,-36.77
0.013,-0.533,-0.883,0.051,0.013,-0.094,-28.95,-255.6,-9.45,200.03,5.07,-37.08
0.025,-0.524,-0.88,0.053,0.01,-0.107,-29.4,-255.9,-10.95,200.1,5.14,-37.39
0.025,-0.524,-0.88,0.04,0.0,-0.022,-29.85,-255.3,-8.55,200.16,5.21,-37.71
0.03,-0.521,-0.883,0.029,-0.003,0.035,-29.85,-255.3,-8.55,200.22,5.28,-38.02
0.014,-0.532,-0.881,0.018,-0.011,0.081,-29.85,-255.3,-8.55,200.28,5.36,-38.33
0.014,-0.532,-0.881,0.02,-0.005,0.088,-29.25,-256.5,-9.75,200.34,5.43,-38.64
0.009,-0.537,-0.879,0.028,-0.005,0.034,-29.55,-256.5,-9.75,200.4,5.51,-38.95
0.012,-0.529,-0.877,0.038,0.004,-0.019,-29.7,-255.15,-9.9,200.45,5.58,-39.26
0.016,-0.528,-0.881,0.054,0.005,-0.104,-28.8,-255.0,-9.75,200.51,5.65,-39.57
0.016,-0.528,-0.881,0.053,0.008,-0.09,-28.8,-255.0,-9.75,200.56,5.73,-39.89
0.022,-0.523,-0.875,0.033,-0.002,0.008,-30.3,-255.75,-10.05,200.61,5.8,-40.2
0.026,-0.525,-0.873,0.023,-0.01,0.057,-29.7,-255.15,-10.2,200.67,5.87,-40.51
0.026,-0.525,-0.873,0.012,-0.005,0.094,-29.85,-255.75,-10.05,200.72,5.94,-40.82
0.014,-0.529,-0.888,0.019,-0.005,0.057,-29.4,-255.15,-9.9,200.77,6.02,-41.13
0.007,-0.531,-0.877,0.032,-0.001,0.011,-28.2,-255.15,-10.65,200.81,6.09,-41.45
0.013,-0.531,-0.881,0.038,0.009,-0.045,-28.5,-255.3,-11.1,200.86,6.16,-41.76
0.013,-0.531,-0.881,0.052,0.006,-0.09,-28.8,-254.55,-10.05,200.9,6.24,-42.07
0.017,-0.524,-0.881,0.049,0.006,-0.068,-30.45,-256.35,-9.45,200.95,6.31,-42.38
0.019,-0.522,-0.875,0.039,0.001,-0.018,-29.85,-256.05,-9.3,200.99,6.38,-42.69
0.019,-0.522,-0.875,0.02,-0.005,0.076,-29.85,-255.75,-10.35,201.03,6.45,-43.0
0.011,-0.526,-0.881,0.013,-0.011,0.096,-28.8,-255.0,-10.35,201.07,6.53,-43.32
0.012,-0.532,-0.882,0.028,-0.003,0.027,-30.3,-255.0,-10.05,201.11,6.6,-43.63
0.014,-0.536,-0.882,0.035,0.002,-0.026,-28.5,-256.5,-10.05,201.15,6.67,-43.94
0.014,-0.536,-0.882,0.044,0.005,-0.068,-30.3,-255.3,-10.05,201.18,6.74,-44.25
0.017,-0.529,-0.882,0.051,0.009,-0.079,-28.2,-254.7,-9.9,201.21,6.81,-44.56
0.017,-0.524,-0.881,0.043,0.007,-0.044,-28.2,-254.7,-9.9,201.25,6.89,-44.88
0.017,-0.524,-0.881,0.034,-0.004,0.006,-29.7,-254.4,-9.45,201.28,6.96,-45.19
0.014,-0.528,-0.883,0.019,-0.005,0.086,-29.55,-256.05,-9.3,201.31,7.03,-45.5
0.012,-0.533,-0.882,0.015,-0.007,0.083,-29.55,-254.55,-9.3,201.34,7.1,-45.81
0.015,-0.532,-0.882,0.027,-0.006,0.05,-28.65,-255.15,-10.65,201.37,7.17,-46.13
0.015,-0.532,-0.882,0.041,0.007,-0.049,-28.65,-255.15,-10.65,201.4,7.24,-46.44
0.01,-0.53,-0.876,0.049,0.005,-0.08,-29.7,-255.9,-9.45,201.42,7.31,-46.75
0.018,-0.528,-0.876,0.047,0.005,-0.061,-29.7,-255.6,-8.7,201.45,7.38,-47.06
0.018,-0.528,-0.876,0.033,-0.002,-0.016,-29.85,-255.0,-10.05,201.47,7.45,-47.38
0.022,-0.526,-0.878,0.028,-0.007,0.035,-29.4,-255.15,-9.45,201.49,7.51,-47.69
0.018,-0.529,-0.884,0.012,-0.006,0.082,-29.4,-255.15,-9.45,201.51,7.58,-48.0
0.016,-0.531,-0.887,0.019,-0.003,0.064,-28.8,-255.75,-9.0,201.53,7.65,-48.31
0.016,-0.531,-0.887,0.03,0.002,0.02,-28.5,-254.55,-9.3,201.55,7.72,-48.63
0.013,-0.536,-0.881,0.047,0.009,-0.065,-29.7,-255.9,-8.7,201.57,7.78,-48.94
0.016,-0.528,-0.88,0.048,0.007,-0.08,-28.05,-256.05,-10.8,201.58,7.85,-49.25
0.016,-0.528,-0.88,0.046,0.005,-0.07,-29.55,-255.0,-9.75,201.6,7.92,-49.57
0.021,-0.524,-0.878,0.028,-0.0,0.015,-30.3,-254.55,-9.3,201.61,7.98,-49.88
0.019,-0.528,-0.879,0.021,-0.011,0.055,-29.55,-255.75,-10.8,201.63,8.05,-50.19
0.012,-0.525,-0.881,0.022,-0.011,0.069,-29.25,-255.0,-9.3,201.64,8.11,-50.5
0.012,-0.525,-0.881,0.025,0.001,0.044,-28.8,-256.95,-9.75,201.65,8.18,-50.82
0.016,-0.536,-0.88,0.035,0.0,-0.004,-28.65,-254.7,-10.2,201.66,8.24,-51.13
0.013,-0.529,-0.885,0.044,0.004,-0.074,-28.65,-255.6,-9.9,201.67,8.31,-51.44
0.013,-0.529,-0.885,0.049,0.007,-0.073,-29.4,-255.15,-9.45,201.68,8.37,-51.76
0.027,-0.524,-0.884,0.046,0.003,-0.048,-30.45,-255.9,-9.9,201.68,8.43,-52.07
0.016,-0.52,-0.879,0.028,-0.002,0.03,-30.3,-255.0,-11.1,201.69,8.5,-52.38
0.015,-0.529,-0.882,0.021,-0.009,0.058,-28.95,-255.15,-9.9,201.69,8.56,-52.7
0.015,-0.529,-0.882,0.027,-0.002,0.047,-28.95,-255.15,-9.9,201.7,8.62,-53.01
0.008,-0.535,-0.883,0.026,0.005,0.014,-27.9,-254.7,-9.45,201.7,8.68,-53.32
0.014,-0.535,-0.879,0.039,0.004,-0.023,-28.5,-255.0,-10.05,201.7,8.74,-53.64
0.014,-0.535,-0.879,0.053,0.011,-0.066,-28.65,-254.7,-10.65,201.7,8.8,-53.95
0.013,-0.524,-0.882,0.047,0.003,-0.051,-29.7,-255.15,-10.95,201.7,8.86,-54.26
0.022,-0.529,-0.884,0.039,-0.003,-0.021,-29.7,-255.15,-10.95,201.7,8.92,-54.58
0.021,-0.528,-0.883,0.024,-0.003,0.044,-29.4,-253.95,-9.15,201.69,8.98,-54.89
0.021,-0.528,-0.883,0.023,-0.002,0.06,-29.25,-255.3,-10.35,201.69,9.04,-55.2
0.017,-0.534,-0.884,0.018,-0.007,0.048,-29.7,-254.7,-10.2,201.69,9.09,-55.52
0.011,-0.535,-0.882,0.037,0.004,-0.01,-27.9,-255.6,-9.45,201.68,9.15,-55.83
0.011,-0.535,-0.882,0.042,0.006,-0.042,-27.9,-255.6,-9.45,201.67,9.21,-56.14
0.021,-0.529,-0.884,0.042,-0.0,-0.053,-29.7,-255.15,-9.9,201.66,9.26,-56.46
0.021,-0.523,-0.873,0.039,0.007,-0.031,-29.85,-255.75,-9.0,201.65,9.32,-56.77
0.017,-0.524,-0.881,0.031,-0.001,0.002,-29.85,-254.55,-9.0,201.64,9.37,-57.09
0.017,-0.524,-0.881,0.023,-0.009,0.05,-29.7,-255.15,-9.45,201.63,9.42,-57.4
0.019,-0.538,-0.883,0.02,-0.005,0.053,-30.15,-255.6,-9.9,201.62,9.48,-57.71
0.014,-0.53,-0.88,0.027,-0.006,0.035,-27.9,-255.15,-9.45,201.61,9.53,-58.03
0.014,-0.53,-0.88,0.039,0.008,-0.031,-28.2,-255.6,-9.45,201.6,9.58,-58.34
0.019,-0.535,-0.884,0.039,-0.002,-0.059,-29.85,-255.0,-10.8,201.58,9.63,-58.66
0.018,-0.523,-0.876,0.039,0.005,-0.055,-29.55,-254.55,-9.3,201.57,9.68,-58.97
0.019,-0.524,-0.879,0.039,0.005,-0.017,-29.7,-253.65,-9.45,201.55,9.73,-59.28
0.019,-0.524,-0.879,0.032,-0.001,0.019,-29.55,-254.55,-9.75,201.53,9.78,-59.6
0.019,-0.523,-0.878,0.022,-0.004,0.06,-28.8,-255.3,-11.55,201.51,9.83,-59.91
0.01,-0.531,-0.882,0.025,-0.005,0.044,-29.55,-255.75,-10.8,201.5,9.88,-60.23
0.01,-0.531,-0.882,0.027,0.001,0.016,-26.55,-254.55,-10.8,201.48,9.93,-60.54
0.009,-0.532,-0.881,0.038,0.007,-0.042,-29.4,-254.4,-9.15,201.46,9.98,-60.85
0.017,-0.533,-0.877,0.047,0.004,-0.059,-29.55,-254.4,-9.15,201.43,10.02,-61.17
0.018,-0.52,-0.88,0.038,0.001,-0.048,-28.05,-256.05,-11.1,201.41,10.07,-61.48
0.018,-0.52,-0.88,0.029,-0.002,0.008,-29.85,-256.05,-10.8,201.39,10.11,-61.8
0.019,-0.527,-0.879,0.027,-0.003,0.037,-28.8,-255.75,-10.05,201.36,10.16,-62.11
0.019,-0.528,-0.879,0.022,-0.005,0.051,-29.25,-256.05,-9.0,201.34,10.2,-62.42
0.019,-0.528,-0.879,0.033,-0.002,0.027,-29.25,-256.05,-9.0,201.31,10.24,-62.74
0.008,-0.532,-0.882,0.034,0.001,-0.002,-28.05,-255.3,-9.75,201.29,10.28,-63.05
0.014,-0.528,-0.882,0.045,0.001,-0.051,-29.7,-255.6,-9.15,201.26,10.33,-63.37
0.018,-0.526,-0.881,0.043,0.004,-0.049,-28.95,-254.7,-8.7,201.23,10.37,-63.68
0.018,-0.526,-0.881,0.043,0.002,-0.029,-29.85,-255.3,-9.3,201.2,10.4,-64.0
0.019,-0.522,-0.877,0.028,-0.003,0.028,-29.85,-255.3,-9.3,201.17,10.44,-64.31
0.019,-0.526,-0.881,0.025,0.001,0.053,-29.85,-255.3,-9.3,201.14,10.48,-64.62
0.019,-0.526,-0.881,0.021,-0.002,0.052,-28.5,-256.5,-9.3,201.11,10.52,-64.94
0.012,-0.525,-0.883,0.034,0.0,0.004,-29.4,-255.15,-10.95,201.08,10.56,-65.25
0.007,-0.534,-0.88,0.034,0.004,-0.025,-28.65,-255.9,-9.45,201.04,10.59,-65.57
0.019,-0.526,-0.877,0.047,0.007,-0.053,-29.25,-255.0,-9.3,201.01,10.63,-65.88
0.019,-0.526,-0.877,0.04,0.002,-0.043,-29.25,-255.0,-9.3,200.98,10.66,-66.2
0.014,-0.531,-0.885,0.036,0.002,-0.02,-29.25,-256.5,-10.05,200.94,10.69,-66.51
0.016,-0.527,-0.881,0.022,-0.003,0.046,-29.55,-255.75,-10.35,200.91,10.73,-66.82
0.017,-0.529,-0.884,0.017,-0.002,0.051,-28.5,-255.0,-10.35,200.87,10.76,-67.14
0.017,-0.529,-0.884,0.027,-0.004,0.04,-28.05,-254.55,-10.8,200.84,10.79,-67.45
0.011,-0.526,-0.881,0.035,-0.0,-0.011,-28.05,-254.55,-10.8,200.8,10.82,-67.77
0.019,-0.528,-0.88,0.045,0.008,-0.041,-28.95,-255.15,-9.15,200.76,10.85,-68.08
0.019,-0.528,-0.88,0.05,0.003,-0.052,-29.25,-255.75,-9.75,200.72,10.88,-68.39
0.019,-0.527,-0.881,0.037,0.0,-0.029,-29.4,-255.6,-9.45,200.68,10.91,-68.71
0.018,-0.527,-0.882,0.032,-0.002,0.006,-28.95,-254.4,-9.9,200.64,10.93,-69.02
0.015,-0.526,-0.879,0.023,-0.004,0.057,-28.95,-254.4,-9.9,200.6,10.96,-69.34
0.015,-0.526,-0.879,0.021,-0.003,0.052,-28.2,-255.9,-9.9,200.56,10.98,-69.65
0.016,-0.534,-0.884,0.025,-0.002,0.035,-28.5,-254.55,-10.35,200.52,11.01,-69.96
0.013,-0.533,-0.885,0.043,0.006,-0.032,-28.5,-254.55,-9.3,200.48,11.03,-70.28
0.013,-0.533,-0.885,0.043,0.006,-0.054,-30.3,-255.0,-9.75,200.43,11.06,-70.59
0.023,-0.53,-0.884,0.043,0.004,-0.06,-30.3,-255.0,-9.75,200.39,11.08,-70.9
0.022,-0.528,-0.881,0.038,-0.0,-0.022,-28.95,-255.6,-9.45,200.35,11.1,-71.22
0.022,-0.525,-0.882,0.024,-0.005,0.023,-30.3,-254.55,-9.3,200.3,11.11,-71.53
0.022,-0.525,-0.882,0.017,-0.005,0.064,-28.65,-254.7,-9.45,200.26,11.13,-71.84
0.015,-0.533,-0.888,0.02,-0.006,0.052,-28.2,-255.15,-10.65,200.21,11.15,-72.16
0.015,-0.531,-0.883,0.032,-0.003,0.03,-28.2,-255.15,-10.65,200.16,11.17,-72.47
0.015,-0.531,-0.883,0.044,0.009,-0.05,-29.25,-255.0,-10.65,200.12,11.19,-72.78
0.016,-0.525,-0.881,0.046,0.004,-0.065,-28.65,-254.4,-9.9,200.07,11.2,-73.09
0.022,-0.527,-0.88,0.043,0.004,-0.061,-29.55,-255.75,-10.05,200.02,11.21,-73.41
0.015,-0.53,-0.88,0.03,-0.003,0.009,-29.25,-255.75,-9.3,199.98,11.23,-73.72
0.015,-0.53,-0.88,0.023,-0.006,0.043,-29.25,-255.75,-9.3,199.93,11.24,-74.03
0.019,-0.527,-0.879,0.02,-0.004,0.064,-29.25,-255.75,-9.3,199.88,11.25,-74.35
0.013,-0.533,-0.886,0.031,-0.0,0.033,-29.4,-256.35,-9.15,199.83,11.26,-74.66
0.013,-0.533,-0.886,0.03,0.007,-0.007,-27.15,-254.7,-9.45,199.78,11.27,-74.97
0.015,-0.528,-0.879,0.048,0.007,-0.066,-29.25,-255.3,-9.75,199.73,11.28,-75.28
0.02,-0.517,-0.882,0.046,0.009,-0.063,-28.65,-255.6,-9.9,199.68,11.29,-75.59
0.018,-0.526,-0.88,0.041,0.006,-0.038,-28.65,-255.6,-9.9,199.63,11.29,-75.91
0.018,-0.526,-0.88,0.028,-0.007,0.033,-29.7,-254.7,-10.2,199.58,11.3,-76.22
0.014,-0.526,-0.877,0.023,-0.007,0.059,-27.9,-254.7,-9.9,199.53,11.31,-76.53
0.015,-0.528,-0.881,0.019,-0.009,0.058,-29.7,-254.7,-9.9,199.47,11.31,-76.84
0.015,-0.528,-0.881,0.032,0.001,0.007,-28.5,-255.3,-8.55,199.42,11.32,-77.15
0.015,-0.534,-0.883,0.036,0.001,-0.032,-28.5,-255.3,-8.55,199.37,11.32,-77.46
0.011,-0.53,-0.884,0.048,0.007,-0.063,-27.9,-253.95,-9.9,199.32,11.32,-77.77
0.024,-0.521,-0.881,0.043,0.003,-0.046,-28.95,-254.4,-9.9,199.26,11.32,-78.08
0.024,-0.521,-0.881,0.036,-0.0,-0.009,-28.95,-256.65,-9.9,199.21,11.32,-78.4
0.025,-0.525,-0.884,0.024,-0.006,0.05,-29.4,-255.15,-9.45,199.16,11.31,-78.71
0.014,-0.529,-0.887,0.022,-0.001,0.056,-29.4,-255.15,-9.45,199.1,11.31,-79.02
0.014,-0.529,-0.887,0.021,-0.005,0.047,-27.15,-255.6,-10.65,199.05,11.31,-79.33
0.008,-0.533,-0.881,0.038,0.002,-0.022,-28.65,-254.7,-9.15,198.99,11.31,-79.64
0.021,-0.53,-0.88,0.046,0.008,-0.048,-29.7,-255.6,-9.45,198.94,11.3,-79.95
0.019,-0.531,-0.884,0.043,0.005,-0.062,-28.5,-255.75,-10.05,198.88,11.29,-80.26
0.019,-0.531,-0.884,0.037,0.004,-0.025,-28.5,-255.75,-10.05,198.83,11.28,-80.56
0.014,-0.523,-0.877,0.028,-0.001,0.012,-28.8,-254.55,-11.1,198.78,11.28,-80.87
0.016,-0.53,-0.876,0.027,-0.002,0.064,-29.7,-254.4,-9.45,198.72,11.27,-81.18
0.016,-0.53,-0.876,0.018,0.0,0.059,-28.8,-254.55,-9.3,198.66,11.26,-81.49
0.011,-0.533,-0.881,0.028,0.0,0.036,-29.4,-255.15,-9.9,198.61,11.25,-81.8
0.013,-0.528,-0.881,0.041,0.002,-0.034,-29.4,-255.15,-9.9,198.55,11.24,-82.11
0.021,-0.534,-0.883,0.05,0.005,-0.063,-29.4,-255.15,-9.9,198.5,11.22,-82.41
0.021,-0.534,-0.883,0.046,0.005,-0.061,-28.8,-253.8,-10.8,198.44,11.21,-82.72
0.016,-0.526,-0.88,0.032,-0.0,-0.014,-29.4,-253.65,-10.65,198.39,11.19,-83.03
0.023,-0.523,-0.881,0.025,-0.003,0.032,-29.7,-254.7,-10.65,198.33,11.17,-83.34
0.017,-0.526,-0.883,0.022,-0.002,0.061,-29.7,-254.7,-10.65,198.27,11.16,-83.64
0.017,-0.526,-0.883,0.027,-0.003,0.048,-29.7,-254.7,-10.65,198.22,11.14,-83.95
0.014,-0.535,-0.879,0.036,-0.001,0.02,-27.15,-255.6,-10.95,198.16,11.12,-84.26
0.01,-0.533,-0.88,0.044,0.003,-0.047,-28.65,-255.9,-10.95,198.11,11.1,-84.56
0.01,-0.533,-0.88,0.048,0.007,-0.069,-28.95,-254.7,-9.15,198.05,11.08,-84.87
0.016,-0.527,-0.876,0.038,0.006,-0.055,-28.05,-253.8,-9.75,197.99,11.06,-85.17
0.019,-0.526,-0.884,0.031,0.003,0.01,-28.05,-253.8,-9.75,197.94,11.04,-85.48
0.017,-0.532,-0.877,0.025,-0.005,0.036,-28.65,-255.15,-8.7,197.88,11.01,-85.78
0.017,-0.532,-0.877,0.022,-0.005,0.053,-28.65,-254.7,-9.9,197.82,10.99,-86.09
0.013,-0.533,-0.885,0.025,0.003,0.037,-27.75,-255.0,-10.05,197.77,10.96,-86.39
0.015,-0.531,-0.885,0.033,0.002,0.005,-27.75,-255.3,-9.3,197.71,10.94,-86.69
0.015,-0.531,-0.885,0.044,0.004,-0.056,-27.75,-255.3,-9.3,197.65,10.91,-87.0
0.017,-0.528,-0.878,0.047,0.007,-0.056,-28.05,-255.3,-9.3,197.6,10.88,-87.3
0.018,-0.528,-0.875,0.039,-0.0,-0.042,-28.2,-254.4,-9.9,197.54,10.85,-87.6
0.018,-0.525,-0.878,0.023,-0.002,0.023,-29.85,-254.25,-11.55,197.49,10.82,-87.91
0.018,-0.525,-0.878,0.024,0.001,0.048,-28.65,-255.15,-10.2,197.43,10.79,-88.21
0.009,-0.527,-0.88,0.027,0.001,0.042,-28.65,-255.15,-10.2,197.37,10.76,-88.51
0.011,-0.536,-0.879,0.031,-0.004,0.023,-28.8,-256.05,-9.75,197.32,10.73,-88.81
0.011,-0.536,-0.879,0.038,0.003,-0.018,-29.4,-255.6,-9.9,197.26,10.7,-89.11
0.019,-0.529,-0.876,0.044,0.001,-0.055,-28.65,-254.4,-10.95,197.21,10.66,-89.41
0.013,-0.529,-0.886,0.046,0.002,-0.043,-28.5,-256.5,-10.35,197.15,10.63,-89.71
0.019,-0.525,-0.883,0.039,0.004,-0.021,-28.65,-253.65,-9.15,197.1,10.59,-90.01
0.019,-0.525,-0.883,0.028,-0.003,0.033,-28.95,-255.15,-9.45,197.04,10.55,-90.31
0.017,-0.526,-0.881,0.018,-0.006,0.048,-28.8,-254.25,-9.75,196.99,10.51,-90.61
0.016,-0.524,-0.88,0.03,-0.001,0.031,-29.55,-255.0,-10.05,196.93,10.48,-90.91
0.016,-0.524,-0.88,0.031,0.001,-0.004,-27.9,-255.15,-10.95,196.88,10.44,-91.21
0.016,-0.529,-0.882,0.039,0.001,-0.025,-28.5,-255.0,-8.55,196.83,10.4,-91.51
0.017,-0.531,-0.877,0.041,0.005,-0.046,-28.5,-255.0,-8.55,196.77,10.36,-91.81
0.021,-0.518,-0.877,0.042,-0.001,-0.034,-28.65,-255.15,-9.9,196.72,10.32,-92.11
0.021,-0.518,-0.877,0.037,0.0,-0.011,-29.55,-255.0,-10.35,196.66,10.28,-92.4
0.014,-0.52,-0.883,0.027,-0.003,0.039,-28.5,-255.3,-8.55,196.61,10.24,-92.7
0.015,-0.528,-0.88,0.022,-0.008,0.047,-27.9,-255.15,-10.95,196.56,10.2,-93.0
0.013,-0.532,-0.886,0.028,0.001,0.008,-27.9,-255.15,-10.95,196.51,10.15,-93.29
0.013,-0.532,-0.886,0.038,0.006,-0.009,-28.8,-254.55,-9.3,196.45,10.11,-93.59
0.014,-0.528,-0.881,0.042,0.006,-0.033,-28.05,-255.75,-10.35,196.4,10.07,-93.89
0.014,-0.528,-0.883,0.044,0.004,-0.038,-28.65,-254.7,-9.45,196.35,10.03,-94.18
0.014,-0.528,-0.883,0.038,0.001,-0.017,-29.4,-254.7,-9.45,196.3,9.99,-94.47
0.019,-0.527,-0.88,0.037,-0.003,0.004,-29.4,-254.7,-9.45,196.25,9.95,-94.77
0.014,-0.528,-0.883,0.023,-0.0,0.05,-29.55,-255.3,-9.75,196.19,9.91,-95.06
0.016,-0.531,-0.881,0.026,-0.004,0.046,-28.2,-255.6,-9.45,196.14,9.87,-95.36
0.016,-0.531,-0.881,0.024,-0.004,0.023,-27.15,-254.7,-9.45,196.09,9.83,-95.65
0.011,-0.531,-0.881,0.043,0.005,-0.031,-28.95,-256.35,-9.9,196.04,9.79,-95.94
0.016,-0.532,-0.884,0.037,-0.003,-0.04,-28.65,-255.6,-10.2,195.99,9.75,-96.23
0.016,-0.532,-0.884,0.041,0.002,-0.035,-28.05,-254.55,-10.35,195.94,9.71,-96.52
0.022,-0.532,-0.884,0.04,0.003,-0.014,-28.8,-255.0,-10.35,195.89,9.67,-96.81
0.011,-0.527,-0.886,0.03,0.003,0.019,-28.2,-255.15,-10.65,195.84,9.63,-97.11
0.014,-0.526,-0.886,0.024,-0.003,0.045,-27.3,-255.3,-9.75,195.79,9.59,-97.4
0.014,-0.526,-0.886,0.028,-0.003,0.034,-28.5,-255.0,-9.3,195.74,9.55,-97.69
0.008,-0.534,-0.883,0.029,-0.0,0.016,-28.65,-255.6,-9.15,195.69,9.52,-97.98
0.017,-0.534,-0.88,0.041,-0.002,-0.036,-28.2,-255.6,-9.9,195.64,9.48,-98.26
0.017,-0.534,-0.88,0.044,0.005,-0.044,-26.4,-255.6,-10.2,195.59,9.44,-98.55
0.021,-0.528,-0.882,0.042,-0.001,-0.041,-28.65,-255.9,-10.2,195.54,9.41,-98.84
0.02,-0.525,-0.882,0.04,-0.002,-0.0,-28.05,-255.0,-10.35,195.49,9.37,-99.13
0.015,-0.532,-0.88,0.025,-0.002,0.026,-27.45,-255.9,-10.2,195.44,9.33,-99.42
0.015,-0.532,-0.88,0.024,-0.006,0.043,-27.75,-255.3,-9.3,195.38,9.3,-99.7
0.012,-0.529,-0.886,0.028,0.002,0.029,-27.9,-255.15,-10.2,195.33,9.27,-99.99
0.011,-0.532,-0.887,0.026,0.002,0.004,-27.75,-256.5,-10.35,195.28,9.24,-100.28
0.011,-0.532,-0.887,0.04,-0.001,-0.034,-27.75,-255.0,-9.3,195.23,9.21,-100.56
0.018,-0.527,-0.883,0.045,0.006,-0.04,-27.75,-255.0,-9.3,195.18,9.18,-100.85
0.014,-0.527,-0.88,0.039,0.003,-0.038,-28.2,-254.7,-8.7,195.13,9.15,-101.13
0.021,-0.522,-0.883,0.032,-0.001,0.009,-29.85,-255.0,-10.05,195.08,9.12,-101.42
0.021,-0.522,-0.883,0.03,-0.002,0.028,-28.65,-254.7,-9.45,195.03,9.09,-101.7
0.018,-0.522,-0.881,0.025,-0.001,0.04,-27.9,-255.9,-9.9,194.98,9.06,-101.99
0.013,-0.527,-0.881,0.026,-0.004,0.023,-27.9,-255.9,-9.9,194.93,9.03,-102.27
0.013,-0.527,-0.881,0.033,0.005,-0.001,-27.3,-255.3,-10.05,194.87,9.0,-102.55
0.012,-0.528,-0.878,0.042,0.008,-0.039,-27.45,-254.7,-11.7,194.82,8.98,-102.84
0.017,-0.529,-0.88,0.044,-0.001,-0.045,-28.05,-255.0,-9.75,194.77,8.95,-103.12
0.017,-0.529,-0.883,0.037,0.001,-0.029,-28.5,-254.25,-10.05,194.72,8.93,-103.4
0.017,-0.529,-0.883,0.027,-0.005,0.015,-28.5,-254.25,-10.05,194.67,8.9,-103.68
0.021,-0.524,-0.879,0.032,-0.01,0.032,-28.65,-255.15,-9.9,194.61,8.88,-103.96
0.009,-0.53,-0.884,0.029,-0.005,0.033,-27.45,-254.4,-8.7,194.56,8.86,-104.24
0.013,-0.534,-0.882,0.028,0.002,0.016,-27.9,-255.9,-10.65,194.51,8.84,-104.52
0.013,-0.534,-0.882,0.034,0.001,-0.012,-29.4,-256.35,-8.7,194.45,8.82,-104.79
0.016,-0.526,-0.881,0.046,0.001,-0.038,-28.2,-255.15,-10.95,194.4,8.8,-105.07
0.014,-0.529,-0.878,0.04,0.003,-0.035,-28.95,-255.6,-9.15,194.34,8.78,-105.35
0.014,-0.529,-0.878,0.037,0.001,-0.019,-27.9,-256.65,-8.7,194.29,8.76,-105.63
0.019,-0.525,-0.878,0.032,0.0,0.019,-28.05,-254.25,-10.05,194.23,8.74,-105.9
0.016,-0.529,-0.882,0.029,-0.004,0.032,-28.95,-255.9,-10.2,194.18,8.73,-106.18
0.014,-0.525,-0.882,0.032,-0.001,0.021,-27.15,-255.15,-9.45,194.12,8.71,-106.46
0.014,-0.525,-0.882,0.026,0.0,0.001,-27.9,-255.15,-9.9,194.06,8.7,-106.73
0.015,-0.53,-0.882,0.037,0.002,-0.016,-28.05,-254.25,-10.05,194.0,8.68,-107.0
0.016,-0.533,-0.881,0.048,0.004,-0.038,-28.8,-254.55,-10.35,193.95,8.67,-107.28
0.016,-0.533,-0.881,0.038,0.001,-0.027,-27.45,-255.6,-9.9,193.89,8.66,-107.55
0.02,-0.524,-0.878,0.037,0.001,-0.011,-28.05,-256.05,-10.05,193.83,8.64,-107.82
0.018,-0.526,-0.881,0.028,-0.003,0.023,-28.65,-254.7,-10.05,193.77,8.63,-108.09
0.017,-0.527,-0.878,0.023,0.001,0.033,-29.55,-254.55,-9.75,193.71,8.62,-108.37
0.017,-0.527,-0.878,0.031,-0.004,0.032,-26.7,-254.7,-11.4,193.65,8.61,-108.64
0.009,-0.528,-0.881,0.028,0.004,0.002,-28.05,-254.25,-11.1,193.58,8.61,-108.9
0.013,-0.529,-0.882,0.037,0.002,-0.015,-27.15,-254.4,-8.7,193.52,8.6,-109.17
0.013,-0.529,-0.882,0.037,0.008,-0.035,-27.15,-254.4,-8.7,193.45,8.6,-109.44
0.016,-0.527,-0.879,0.033,0.005,-0.025,-28.2,-254.4,-8.4,193.39,8.59,-109.71
0.015,-0.526,-0.878,0.032,-0.001,-0.011,-27.45,-255.6,-9.9,193.32,8.59,-109.98
0.015,-0.53,-0.884,0.025,-0.004,0.025,-28.95,-255.15,-10.65,193.26,8.59,-110.24
0.015,-0.53,-0.884,0.031,-0.001,0.028,-28.65,-254.4,-10.2,193.19,8.58,-110.51
0.01,-0.529,-0.882,0.031,0.0,0.023,-28.65,-254.4,-10.2,193.12,8.59,-110.77
0.018,-0.527,-0.876,0.041,-0.003,-0.013,-28.5,-255.0,-9.3,193.05,8.58,-111.04
0.018,-0.527,-0.876,0.037,0.002,-0.02,-29.25,-255.0,-10.8,192.98,8.58,-111.3
0.018,-0.527,-0.881,0.038,0.003,-0.025,-29.4,-254.4,-10.2,192.91,8.58,-111.56
0.017,-0.525,-0.882,0.044,0.004,-0.01,-27.45,-254.7,-10.2,192.84,8.58,-111.82
0.014,-0.532,-0.881,0.039,0.001,0.003,-27.45,-254.7,-10.2,192.77,8.59,-112.08
0.014,-0.532,-0.881,0.033,-0.004,0.026,-28.8,-254.55,-11.1,192.69,8.59,-112.34
0.013,-0.527,-0.88,0.033,0.002,0.026,-28.95,-255.15,-10.2,192.62,8.6,-112.6
0.014,-0.528,-0.883,0.027,0.002,0.012,-29.55,-255.3,-10.05,192.54,8.61,-112.86
0.014,-0.528,-0.883,0.039,0.001,-0.014,-28.65,-254.7,-10.65,192.46,8.61,-113.12
0.017,-0.528,-0.883,0.042,0.001,-0.025,-27.75,-254.55,-9.3,192.38,8.62,-113.37
0.017,-0.526,-0.881,0.038,0.002,-0.017,-28.65,-254.4,-10.95,192.3,8.63,-113.63
0.014,-0.527,-0.878,0.04,0.001,-0.004,-28.65,-256.65,-10.2,192.22,8.64,-113.88
0.014,-0.527,-0.878,0.032,-0.002,0.009,-29.25,-255.0,-10.35,192.14,8.65,-114.14
0.013,-0.529,-0.877,0.03,-0.003,0.021,-26.7,-255.6,-9.9,192.05,8.66,-114.39
0.016,-0.529,-0.876,0.032,-0.002,0.019,-27.9,-255.15,-10.65,191.97,8.67,-114.64
0.017,-0.53,-0.879,0.033,0.001,0.006,-28.95,-255.15,-9.45,191.88,8.69,-114.89
0.017,-0.53,-0.879,0.038,0.002,-0.023,-27.15,-255.6,-9.9,191.79,8.7,-115.14
0.018,-0.527,-0.879,0.036,0.004,-0.024,-26.25,-255.3,-10.35,191.7,8.71,-115.38
0.014,-0.523,-0.88,0.037,0.006,-0.023,-28.5,-254.55,-9.75,191.6,8.73,-115.63
0.014,-0.523,-0.88,0.03,0.003,-0.001,-27.9,-254.4,-10.2,191.51,8.74,-115.88
0.014,-0.524,-0.881,0.029,-0.0,0.01,-27.9,-254.4,-10.2,191.41,8.76,-116.12
0.015,-0.538,-0.884,0.029,0.001,0.021,-28.05,-256.05,-10.05,191.32,8.78,-116.37
0.015,-0.524,-0.876,0.03,-0.001,0.015,-27.9,-255.15,-10.65,191.22,8.8,-116.61
0.015,-0.524,-0.876,0.037,0.006,0.007,-27.75,-255.3,-10.8,191.12,8.82,-116.85
0.013,-0.527,-0.886,0.033,0.001,-0.023,-28.5,-255.3,-10.35,191.02,8.84,-117.09
0.015,-0.524,-0.88,0.037,0.001,-0.025,-28.5,-255.3,-10.35,190.91,8.86,-117.33
0.015,-0.524,-0.88,0.039,0.001,-0.02,-28.65,-254.4,-9.9,190.81,8.88,-117.57
0.016,-0.524,-0.887,0.034,-0.001,-0.001,-27.3,-254.25,-9.3,190.7,8.91,-117.81
0.012,-0.526,-0.884,0.034,0.002,0.016,-27.9,-255.9,-10.2,190.59,8.93,-118.04
0.017,-0.523,-0.881,0.029,-0.002,0.014,-28.5,-255.75,-10.8,190.48,8.95,-118.28
0.017,-0.523,-0.881,0.036,-0.0,0.012,-28.5,-255.75,-10.8,190.37,8.98,-118.51
0.014,-0.532,-0.882,0.031,-0.001,-0.002,-28.05,-255.0,-9.3,190.25,9.0,-118.74
0.016,-0.524,-0.879,0.037,0.003,-0.017,-27.75,-255.3,-9.75,190.13,9.03,-118.97
0.016,-0.524,-0.879,0.036,0.001,-0.017,-28.65,-255.6,-9.15,190.01,9.06,-119.19
0.02,-0.525,-0.881,0.034,0.002,-0.021,-27.45,-255.6,-10.65,189.89,9.08,-119.42
0.01,-0.527,-0.881,0.038,-0.003,0.001,-28.95,-254.4,-9.45,189.76,9.12,-119.64
0.016,-0.526,-0.885,0.028,-0.002,0.008,-27.45,-255.15,-10.2,189.64,9.14,-119.87
0.016,-0.526,-0.885,0.035,-0.002,0.016,-29.25,-255.0,-10.05,189.51,9.18,-120.09
0.013,-0.529,-0.879,0.037,0.001,0.006,-28.2,-254.7,-10.2,189.38,9.21,-120.31
0.014,-0.521,-0.881,0.03,0.002,0.004,-28.65,-253.95,-10.95,189.25,9.24,-120.53
0.014,-0.521,-0.881,0.038,0.001,-0.012,-28.2,-255.9,-9.9,189.12,9.27,-120.75
0.016,-0.535,-0.882,0.036,0.004,-0.009,-28.2,-254.4,-10.65,188.98,9.3,-120.96
0.017,-0.53,-0.881,0.036,0.0,-0.012,-28.8,-254.55,-10.05,188.84,9.34,-121.17
0.018,-0.524,-0.884,0.031,0.001,-0.006,-29.85,-255.0,-9.3,188.7,9.37,-121.38
0.018,-0.524,-0.884,0.028,-0.002,0.0,-28.05,-255.3,-10.05,188.56,9.4,-121.59
0.015,-0.524,-0.879,0.034,-0.003,0.003,-28.05,-255.3,-11.1,188.42,9.43,-121.8
0.013,-0.529,-0.883,0.027,0.0,0.005,-29.25,-255.3,-8.55,188.27,9.47,-122.0
0.013,-0.529,-0.883,0.029,0.003,0.0,-28.5,-255.0,-8.25,188.11,9.51,-122.21
0.016,-0.531,-0.886,0.031,-0.003,-0.011,-28.8,-255.75,-9.75,187.96,9.55,-122.41
0.014,-0.526,-0.883,0.036,-0.001,-0.008,-27.75,-253.8,-10.35,187.81,9.58,-122.61
0.018,-0.527,-0.879,0.032,0.0,-0.01,-28.5,-255.75,-8.55,187.65,9.62,-122.8
0.018,-0.527,-0.879,0.035,0.004,-0.005,-28.5,-255.75,-8.55,187.48,9.65,-123.0
0.015,-0.527,-0.875,0.029,-0.002,0.0,-27.9,-255.15,-10.2,187.32,9.69,-123.19
0.014,-0.528,-0.881,0.027,-0.003,0.01,-28.5,-255.0,-10.05,187.16,9.73,-123.38
0.017,-0.528,-0.882,0.03,-0.0,0.003,-29.25,-255.75,-9.75,186.99,9.77,-123.57
0.017,-0.528,-0.882,0.037,0.001,0.001,-28.5,-254.25,-10.05,186.83,9.8,-123.76
0.016,-0.528,-0.879,0.033,0.004,-0.004,-28.5,-254.25,-10.05,186.66,9.84,-123.95
0.016,-0.527,-0.877,0.036,0.002,-0.007,-28.05,-254.55,-10.05,186.49,9.87,-124.13
0.016,-0.527,-0.877,0.036,-0.001,-0.007,-28.8,-255.75,-9.0,186.31,9.91,-124.31
0.014,-0.526,-0.88,0.032,0.0,0.003,-28.8,-256.05,-9.75,186.13,9.95,-124.49
0.019,-0.525,-0.882,0.034,0.0,0.011,-27.0,-255.3,-9.3,185.95,9.99,-124.67
0.011,-0.528,-0.879,0.03,-0.004,0.012,-27.0,-255.3,-9.3,185.77,10.03,-124.84
0.011,-0.528,-0.879,0.032,-0.001,0.004,-27.0,-255.3,-9.3,185.59,10.07,-125.01
0.009,-0.531,-0.882,0.031,0.001,-0.006,-27.9,-255.6,-9.9,185.4,10.11,-125.18
0.011,-0.527,-0.882,0.035,0.002,-0.02,-27.9,-254.4,-9.9,185.22,10.15,-125.35
0.011,-0.527,-0.882,0.038,0.003,-0.025,-27.15,-254.7,-9.45,185.03,10.19,-125.52
0.017,-0.526,-0.882,0.038,0.003,-0.012,-27.75,-255.3,-9.3,184.83,10.23,-125.69
0.019,-0.526,-0.879,0.032,0.001,0.005,-27.75,-255.3,-9.3,184.64,10.26,-125.85
0.017,-0.525,-0.883,0.033,0.004,0.016,-27.0,-255.0,-9.75,184.45,10.29,-126.01
0.017,-0.525,-0.883,0.03,-0.004,0.02,-27.9,-255.15,-9.15,184.25,10.33,-126.18
0.016,-0.531,-0.88,0.032,0.002,0.001,-28.2,-256.35,-9.45,184.05,10.37,-126.33
0.011,-0.527,-0.885,0.032,-0.001,-0.008,-27.45,-255.6,-10.2,183.85,10.41,-126.49
0.011,-0.527,-0.885,0.039,0.002,-0.02,-27.45,-255.6,-10.2,183.65,10.45,-126.64
0.012,-0.528,-0.881,0.036,0.001,-0.02,-27.9,-255.15,-9.9,183.45,10.49,-126.79
0.014,-0.528,-0.873,0.036,-0.001,-0.01,-27.3,-256.05,-8.55,183.24,10.52,-126.94
0.022,-0.527,-0.876,0.03,-0.001,0.011,-28.5,-256.05,-11.55,183.04,10.55,-127.09
0.022,-0.527,-0.876,0.03,-0.003,0.016,-27.3,-254.55,-11.85,182.83,10.58,-127.23
0.014,-0.529,-0.881,0.029,-0.006,0.014,-27.3,-254.55,-11.85,182.63,10.61,-127.37
0.013,-0.529,-0.879,0.038,0.003,-0.004,-28.5,-254.25,-9.3,182.41,10.65,-127.51
0.013,-0.529,-0.879,0.036,0.002,-0.008,-28.05,-255.3,-10.35,182.2,10.69,-127.65
0.016,-0.531,-0.881,0.043,0.005,-0.012,-27.45,-254.7,-10.65,181.99,10.72,-127.79
0.017,-0.528,-0.883,0.034,0.001,-0.014,-27.45,-255.9,-9.9,181.77,10.75,-127.93
0.018,-0.528,-0.879,0.038,-0.004,0.003,-27.45,-255.9,-9.9,181.56,10.78,-128.06
0.018,-0.528,-0.879,0.027,0.001,0.01,-27.45,-255.15,-10.2,181.34,10.81,-128.19
0.013,-0.526,-0.887,0.032,-0.003,0.013,-27.9,-255.6,-10.65,181.12,10.84,-128.33
0.017,-0.527,-0.884,0.032,-0.003,0.002,-27.75,-255.0,-8.55,180.9,10.88,-128.46
0.01,-0.527,-0.878,0.036,-0.001,-0.015,-28.8,-254.55,-9.75,180.68,10.92,-128.59
0.01,-0.527,-0.878,0.042,-0.004,-0.021,-28.8,-254.55,-9.75,180.46,10.95,-128.71
0.013,-0.523,-0.882,0.035,0.001,-0.007,-27.75,-255.0,-10.35,180.23,10.99,-128.84
0.018,-0.527,-0.879,0.034,-0.002,-0.004,-28.2,-255.15,-10.2,180.01,11.02,-128.97
0.018,-0.527,-0.879,0.028,-0.001,0.003,-28.95,-254.7,-10.2,179.78,11.04,-129.09
0.02,-0.532,-0.879,0.032,-0.002,0.016,-27.75,-254.25,-11.1,179.56,11.07,-129.21
0.014,-0.527,-0.883,0.032,0.002,0.004,-27.15,-256.35,-10.65,179.33,11.1,-129.33
0.011,-0.529,-0.877,0.033,0.0,-0.002,-27.15,-256.35,-10.65,179.11,11.13,-129.44
0.011,-0.529,-0.877,0.032,0.001,-0.017,-27.75,-255.0,-10.35,178.88,11.16,-129.56
0.011,-0.528,-0.883,0.036,0.001,-0.015,-27.9,-254.7,-9.9,178.65,11.2,-129.67
0.015,-0.523,-0.879,0.034,0.002,-0.004,-27.75,-254.25,-10.65,178.42,11.22,-129.79
0.015,-0.523,-0.879,0.036,-0.001,0.006,-28.2,-255.9,-10.2,178.19,11.25,-129.9
0.013,-0.53,-0.886,0.034,0.0,0.016,-28.2,-255.9,-10.2,177.95,11.28,-130.01
0.012,-0.524,-0.877,0.032,-0.001,0.008,-28.5,-254.55,-10.35,177.72,11.31,-130.12
0.015,-0.529,-0.88,0.036,0.001,-0.0,-27.45,-255.6,-10.65,177.49,11.34,-130.23
0.015,-0.529,-0.88,0.033,0.008,-0.017,-27.9,-255.15,-9.15,177.25,11.36,-130.34
0.015,-0.525,-0.883,0.037,0.003,-0.025,-27.0,-257.25,-8.55,177.01,11.39,-130.45
0.014,-0.524,-0.883,0.034,-0.002,-0.019,-27.0,-257.25,-8.55,176.77,11.41,-130.55
0.012,-0.521,-0.884,0.033,0.001,0.013,-28.8,-253.8,-10.35,176.54,11.44,-130.67
0.012,-0.521,-0.884,0.029,0.001,0.028,-27.9,-254.7,-10.2,176.3,11.47,-130.78
0.011,-0.526,-0.885,0.031,-0.0,0.027,-28.65,-254.7,-10.65,176.07,11.5,-130.88
0.012,-0.531,-0.883,0.029,0.004,0.004,-27.9,-255.6,-9.45,175.83,11.53,-130.98
0.012,-0.531,-0.883,0.037,0.003,-0.016,-29.25,-253.8,-9.3,175.59,11.56,-131.08
0.015,-0.531,-0.879,0.036,0.002,-0.029,-27.45,-254.7,-10.2,175.35,11.58,-131.17
0.02,-0.524,-0.875,0.036,0.003,-0.035,-27.45,-255.6,-10.2,175.1,11.59,-131.27
0.021,-0.529,-0.885,0.034,0.001,-0.018,-29.25,-254.55,-9.75,174.86,11.61,-131.37
0.021,-0.529,-0.885,0.029,-0.006,0.027,-28.65,-254.4,-10.2,174.62,11.63,-131.46
0.015,-0.533,-0.882,0.023,-0.005,0.033,-28.65,-255.6,-9.45,174.38,11.65,-131.55
0.012,-0.528,-0.884,0.024,-0.005,0.034,-27.75,-254.25,-10.8,174.14,11.67,-131.65
0.012,-0.528,-0.884,0.034,0.002,0.005,-27.15,-254.7,-9.9,173.9,11.69,-131.74
0.011,-0.534,-0.879,0.036,0.006,-0.013,-27.0,-254.25,-11.55,173.66,11.71,-131.83
0.014,-0.53,-0.882,0.039,-0.0,-0.032,-28.5,-255.0,-9.3,173.41,11.73,-131.92
0.014,-0.527,-0.886,0.039,0.0,-0.03,-29.25,-256.5,-9.3,173.17,11.76,-132.01
0.014,-0.527,-0.886,0.036,-0.003,-0.015,-27.75,-256.5,-9.3,172.92,11.78,-132.1
0.012,-0.53,-0.883,0.029,-0.002,0.023,-28.95,-254.4,-10.2,172.68,11.8,-132.19
0.012,-0.532,-0.884,0.025,-0.006,0.034,-27.75,-255.3,-10.8,172.44,11.82,-132.28
0.012,-0.532,-0.884,0.023,-0.002,0.031,-28.2,-255.15,-10.95,172.2,11.84,-132.36
0.005,-0.533,-0.883,0.032,0.005,0.004,-27.75,-254.25,-10.05,171.95,11.86,-132.45
0.014,-0.532,-0.879,0.043,0.001,-0.014,-27.75,-254.25,-10.05,171.71,11.88,-132.53
0.021,-0.528,-0.885,0.039,0.003,-0.022,-28.2,-255.9,-9.15,171.46,11.89,-132.61
0.021,-0.528,-0.885,0.037,0.001,-0.024,-27.15,-254.4,-9.45,171.21,11.89,-132.7
0.015,-0.526,-0.883,0.043,-0.001,-0.004,-28.5,-255.75,-10.35,170.97,11.91,-132.79
0.012,-0.526,-0.88,0.026,-0.005,0.025,-29.4,-255.15,-9.9,170.72,11.93,-132.87
0.01,-0.522,-0.885,0.026,-0.003,0.031,-29.4,-255.15,-9.9,170.48,11.95,-132.96
0.01,-0.522,-0.885,0.03,-0.003,0.015,-27.0,-256.05,-10.05,170.23,11.97,-133.05
0.019,-0.533,-0.882,0.035,0.003,-0.015,-29.25,-255.0,-10.05,169.99,11.98,-133.13
0.009,-0.529,-0.881,0.043,0.002,-0.029,-27.15,-254.7,-10.65,169.74,11.99,-133.21
0.009,-0.529,-0.881,0.044,0.0,-0.03,-28.5,-256.05,-10.05,169.5,12.01,-133.29
0.017,-0.526,-0.882,0.036,0.0,-0.013,-28.5,-256.05,-10.05,169.25,12.02,-133.37
0.014,-0.526,-0.879,0.029,-0.0,0.005,-28.65,-254.4,-10.2,169.01,12.03,-133.45
0.012,-0.534,-0.88,0.028,-0.004,0.03,-27.75,-255.3,-9.0,168.76,12.05,-133.52
0.012,-0.534,-0.88,0.028,-0.002,0.028,-27.75,-256.5,-10.35,168.51,12.06,-133.59
0.012,-0.526,-0.879,0.029,-0.004,0.018,-28.2,-254.7,-9.15,168.26,12.07,-133.67
0.015,-0.527,-0.883,0.033,0.0,-0.019,-28.2,-254.7,-9.15,168.02,12.08,-133.75
0.015,-0.527,-0.883,0.04,0.006,-0.031,-28.2,-254.7,-9.9,167.77,12.09,-133.83
0.017,-0.532,-0.875,0.034,0.007,-0.031,-27.75,-255.0,-10.05,167.52,12.1,-133.9
0.021,-0.529,-0.879,0.031,-0.001,-0.008,-27.45,-254.4,-10.95,167.28,12.1,-133.97
0.013,-0.525,-0.885,0.028,-0.001,0.007,-28.8,-255.0,-9.0,167.03,12.11,-134.05
0.013,-0.525,-0.885,0.035,-0.001,0.024,-27.75,-255.3,-10.35,166.79,12.12,-134.13
0.011,-0.525,-0.882,0.03,-0.004,0.018,-26.55,-255.0,-9.3,166.54,12.13,-134.21
0.01,-0.53,-0.886,0.034,-0.002,0.007,-28.2,-255.15,-8.7,166.29,12.14,-134.28
0.01,-0.53,-0.886,0.037,0.002,-0.025,-26.4,-254.4,-10.65,166.05,12.15,-134.36
0.014,-0.534,-0.881,0.043,0.0,-0.025,-28.95,-255.6,-9.45,165.8,12.16,-134.42
0.021,-0.524,-0.88,0.038,0.003,-0.02,-28.65,-255.6,-10.2,165.55,12.16,-134.5
0.017,-0.526,-0.882,0.029,0.008,0.011,-28.5,-256.05,-9.3,165.3,12.16,-134.57
0.017,-0.526,-0.882,0.031,-0.003,0.024,-28.8,-255.0,-10.35,165.06,12.17,-134.65
0.017,-0.53,-0.876,0.028,0.003,0.017,-27.3,-253.8,-9.3,164.81,12.17,-134.72
0.011,-0.532,-0.882,0.033,-0.001,-0.002,-27.15,-255.6,-10.2,164.57,12.17,-134.78
0.014,-0.523,-0.883,0.041,0.001,-0.017,-28.5,-256.5,-9.75,164.32,12.18,-134.86
0.014,-0.523,-0.883,0.036,0.003,-0.033,-28.5,-256.05,-8.55,164.07,12.18,-134.94
0.014,-0.526,-0.879,0.04,-0.0,-0.026,-28.5,-255.75,-11.1,163.83,12.19,-135.01
0.019,-0.522,-0.879,0.032,-0.001,-0.004,-28.5,-254.55,-9.75,163.58,12.19,-135.08
0.019,-0.522,-0.879,0.027,-0.006,0.032,-27.45,-254.7,-10.65,163.34,12.19,-135.15
0.017,-0.53,-0.882,0.025,-0.004,0.039,-27.3,-255.75,-8.55,163.09,12.19,-135.22
0.015,-0.53,-0.878,0.032,0.003,0.019,-27.3,-255.75,-8.55,162.84,12.19,-135.29
0.015,-0.532,-0.881,0.035,-0.003,-0.004,-26.25,-254.25,-10.05,162.6,12.19,-135.35
0.015,-0.532,-0.881,0.035,0.006,-0.03,-27.15,-255.15,-10.65,162.36,12.19,-135.42
0.011,-0.528,-0.881,0.038,0.0,-0.036,-28.2,-254.7,-9.9,162.11,12.19,-135.48
0.018,-0.526,-0.883,0.039,0.004,-0.025,-28.5,-256.5,-11.1,161.87,12.19,-135.56
0.018,-0.526,-0.883,0.035,0.002,-0.008,-28.5,-256.5,-11.1,161.63,12.19,-135.63
0.017,-0.527,-0.885,0.026,0.001,0.026,-28.5,-256.5,-11.1,161.39,12.19,-135.7
0.015,-0.528,-0.884,0.03,-0.003,0.035,-28.95,-255.6,-10.2,161.14,12.19,-135.76
0.01,-0.53,-0.885,0.032,0.001,0.014,-27.15,-254.7,-11.7,160.9,12.19,-135.83
0.01,-0.53,-0.885,0.039,-0.001,-0.012,-28.05,-255.3,-9.75,160.66,12.2,-135.9
0.013,-0.531,-0.883,0.04,-0.003,-0.025,-28.05,-255.3,-9.75,160.42,12.2,-135.96
0.016,-0.521,-0.881,0.035,0.003,-0.03,-28.05,-255.3,-9.75,160.17,12.2,-136.03
0.016,-0.521,-0.881,0.033,-0.0,-0.016,-27.0,-255.75,-9.75,159.93,12.19,-136.1
0.013,-0.524,-0.879,0.029,-0.005,0.005,-28.2,-255.9,-10.2,159.69,12.19,-136.17
0.014,-0.526,-0.883,0.019,-0.003,0.029,-27.3,-255.3,-9.3,159.44,12.19,-136.24
0.011,-0.524,-0.876,0.028,-0.002,0.026,-27.45,-254.7,-11.4,159.2,12.19,-136.3
0.011,-0.524,-0.876,0.036,-0.0,-0.008,-27.45,-254.7,-11.4,158.97,12.19,-136.37
0.015,-0.525,-0.879,0.043,0.005,-0.029,-27.3,-255.3,-11.55,158.73,12.18,-136.43
0.011,-0.528,-0.882,0.046,0.005,-0.038,-28.05,-256.5,-10.35,158.49,12.18,-136.5
0.015,-0.529,-0.882,0.043,-0.0,-0.023,-27.75,-255.3,-10.05,158.25,12.18,-136.56
0.015,-0.529,-0.882,0.034,-0.001,0.006,-28.2,-255.15,-9.45,158.0,12.18,-136.63
0.013,-0.533,-0.882,0.031,0.0,0.019,-28.2,-255.15,-9.45,157.76,12.17,-136.69
0.018,-0.525,-0.883,0.028,-0.009,0.043,-27.3,-255.3,-9.3,157.52,12.17,-136.75
0.018,-0.525,-0.883,0.029,0.0,0.029,-27.0,-254.55,-9.75,157.28,12.16,-136.82
0.007,-0.531,-0.883,0.034,-0.006,0.005,-27.75,-254.25,-9.75,157.04,12.16,-136.88
0.014,-0.526,-0.88,0.039,0.002,-0.043,-28.2,-255.6,-10.65,156.8,12.16,-136.94
0.015,-0.529,-0.877,0.046,0.005,-0.052,-28.2,-255.6,-10.65,156.56,12.15,-137.0
0.015,-0.529,-0.877,0.038,0.004,-0.018,-27.75,-255.75,-10.05,156.32,12.14,-137.06
0.02,-0.52,-0.877,0.031,-0.004,0.01,-27.3,-255.3,-9.75,156.08,12.13,-137.13
0.014,-0.526,-0.884,0.023,-0.006,0.035,-28.05,-256.5,-11.1,155.85,12.12,-137.19
0.014,-0.526,-0.884,0.023,-0.005,0.043,-27.3,-255.3,-11.55,155.61,12.12,-137.25
0.008,-0.529,-0.881,0.029,-0.0,0.022,-27.3,-255.3,-11.55,155.38,12.12,-137.31
0.011,-0.53,-0.883,0.035,-0.003,-0.001,-27.3,-254.55,-9.3,155.14,12.11,-137.37
0.011,-0.532,-0.881,0.043,0.002,-0.041,-27.45,-254.4,-9.9,154.9,12.11,-137.43
0.011,-0.532,-0.881,0.041,0.001,-0.043,-27.0,-254.25,-10.05,154.66,12.1,-137.49
0.015,-0.524,-0.879,0.04,-0.002,-0.003,-27.3,-256.05,-11.1,154.43,12.09,-137.55
0.017,-0.528,-0.877,0.03,-0.002,0.017,-27.3,-256.05,-11.1,154.19,12.08,-137.61
0.017,-0.528,-0.877,0.025,-0.004,0.034,-28.2,-257.1,-10.2,153.96,12.07,-137.67
0.013,-0.531,-0.882,0.023,-0.003,0.027,-27.0,-255.75,-10.05,153.72,12.06,-137.73
0.006,-0.529,-0.883,0.026,0.002,0.008,-27.9,-254.4,-11.4,153.49,12.06,-137.79
0.013,-0.525,-0.887,0.04,0.003,-0.014,-28.2,-254.7,-9.9,153.25,12.05,-137.85
0.013,-0.525,-0.887,0.042,0.005,-0.041,-28.2,-254.7,-9.9,153.02,12.04,-137.91
0.013,-0.526,-0.882,0.045,0.005,-0.034,-28.2,-254.7,-9.9,152.78,12.04,-137.97
0.016,-0.524,-0.879,0.033,-0.001,0.014,-28.2,-255.9,-10.2,152.55,12.02,-138.04
0.016,-0.524,-0.879,0.027,-0.004,0.031,-28.05,-253.8,-9.75,152.31,12.01,-138.1
0.011,-0.527,-0.877,0.026,-0.008,0.041,-27.15,-255.15,-10.95,152.08,12.01,-138.15
0.015,-0.529,-0.885,0.031,-0.003,0.018,-27.3,-254.55,-10.8,151.85,11.99,-138.21
0.012,-0.534,-0.883,0.035,0.002,-0.009,-27.3,-254.55,-10.8,151.62,11.98,-138.27
0.012,-0.534,-0.883,0.033,0.003,-0.028,-27.45,-254.4,-9.45,151.38,11.98,-138.32
0.015,-0.53,-0.883,0.039,0.004,-0.04,-28.5,-255.0,-11.1,151.15,11.96,-138.38
0.013,-0.528,-0.879,0.042,-0.002,-0.023,-28.8,-255.0,-9.0,150.92,11.96,-138.44
0.016,-0.523,-0.881,0.028,-0.005,0.02,-27.75,-255.0,-10.35,150.69,11.94,-138.5
0.016,-0.523,-0.881,0.029,-0.001,0.028,-27.75,-255.0,-10.35,150.45,11.93,-138.56
0.011,-0.53,-0.882,0.026,0.0,0.031,-28.65,-254.4,-9.45,150.22,11.92,-138.62
0.017,-0.534,-0.882,0.033,0.003,0.007,-26.7,-256.35,-9.45,149.99,11.9,-138.67
0.017,-0.534,-0.882,0.038,-0.0,-0.014,-26.4,-254.4,-9.15,149.76,11.89,-138.72
0.014,-0.531,-0.878,0.041,0.006,-0.029,-28.2,-254.7,-9.9,149.53,11.88,-138.77
0.012,-0.52,-0.881,0.045,0.002,-0.028,-28.2,-254.7,-9.9,149.3,11.87,-138.84
0.011,-0.529,-0.876,0.029,-0.003,-0.009,-27.9,-255.6,-10.65,149.07,11.86,-138.89
0.011,-0.529,-0.876,0.026,-0.001,0.028,-29.25,-255.75,-9.0,148.84,11.85,-138.94
0.014,-0.53,-0.883,0.028,-0.004,0.031,-27.3,-256.5,-9.0,148.61,11.83,-139.0
0.014,-0.53,-0.877,0.03,0.0,0.024,-28.65,-255.15,-10.2,148.38,11.82,-139.05
0.014,-0.53,-0.877,0.036,0.001,-0.009,-28.65,-255.15,-10.2,148.15,11.81,-139.1
0.011,-0.529,-0.877,0.037,0.002,-0.024,-27.75,-255.3,-10.05,147.92,11.8,-139.16
0.019,-0.524,-0.88,0.038,-0.001,-0.037,-27.45,-255.15,-9.45,147.69,11.78,-139.22
0.018,-0.524,-0.88,0.038,-0.001,-0.012,-26.4,-254.7,-10.95,147.47,11.76,-139.27
0.018,-0.524,-0.88,0.031,-0.003,0.002,-27.3,-255.75,-9.75,147.24,11.74,-139.33
0.014,-0.529,-0.88,0.032,-0.008,0.031,-27.3,-255.75,-9.75,147.01,11.72,-139.39
0.011,-0.53,-0.882,0.024,0.001,0.025,-27.0,-255.3,-8.55,146.78,11.71,-139.44
0.011,-0.53,-0.882,0.032,0.0,0.011,-27.45,-255.15,-9.45,146.56,11.69,-139.5
0.01,-0.526,-0.883,0.042,0.001,-0.021,-26.7,-254.4,-10.95,146.34,11.68,-139.55
0.019,-0.523,-0.883,0.039,0.003,-0.025,-27.75,-255.3,-10.05,146.11,11.66,-139.61
0.011,-0.525,-0.88,0.043,-0.0,-0.028,-27.75,-255.3,-10.05,145.89,11.65,-139.67
0.011,-0.525,-0.88,0.037,-0.002,-0.005,-27.75,-255.3,-10.05,145.66,11.63,-139.72
0.015,-0.526,-0.879,0.036,-0.003,0.014,-26.4,-254.7,-10.65,145.44,11.61,-139.78
0.011,-0.528,-0.883,0.032,-0.003,0.019,-29.25,-254.25,-9.75,145.21,11.6,-139.83
0.017,-0.53,-0.884,0.03,0.001,0.013,-27.0,-255.0,-9.75,144.99,11.58,-139.89
0.017,-0.53,-0.884,0.039,-0.003,0.001,-27.0,-255.3,-10.35,144.77,11.56,-139.94
0.009,-0.528,-0.877,0.036,0.001,-0.019,-27.0,-255.3,-10.35,144.55,11.55,-139.99
0.017,-0.527,-0.881,0.035,-0.002,-0.019,-27.9,-254.7,-10.2,144.32,11.53,-140.05
0.017,-0.527,-0.881,0.038,-0.001,-0.015,-27.75,-255.3,-9.75,144.1,11.51,-140.1
0.019,-0.524,-0.879,0.031,0.001,0.005,-28.05,-255.3,-10.8,143.88,11.49,-140.16
0.014,-0.525,-0.88,0.031,-0.001,0.009,-28.05,-255.0,-10.05,143.66,11.47,-140.21
0.014,-0.528,-0.883,0.034,-0.005,0.009,-28.05,-255.0,-10.05,143.44,11.45,-140.26
0.014,-0.528,-0.883,0.038,0.001,0.005,-27.45,-253.95,-10.65,143.22,11.43,-140.32
0.015,-0.529,-0.882,0.033,-0.002,-0.001,-28.5,-256.05,-10.05,143.0,11.41,-140.37
0.013,-0.524,-0.877,0.037,0.001,-0.01,-26.7,-255.6,-10.95,142.78,11.39,-140.42
0.013,-0.524,-0.877,0.037,-0.001,-0.002,-27.45,-255.15,-9.15,142.56,11.38,-140.47
0.016,-0.529,-0.883,0.03,-0.001,-0.003,-27.45,-255.15,-9.15,142.34,11.36,-140.53
0.013,-0.526,-0.876,0.03,0.005,0.008,-28.5,-254.55,-10.05,142.12,11.34,-140.58
0.014,-0.527,-0.878,0.03,0.001,0.003,-29.4,-255.6,-9.45,141.9,11.32,-140.63
0.014,-0.527,-0.878,0.037,-0.003,-0.014,-27.9,-255.6,-10.65,141.69,11.3,-140.68
0.018,-0.529,-0.879,0.033,0.003,-0.01,-27.9,-254.4,-9.9,141.47,11.28,-140.73
0.017,-0.528,-0.884,0.036,-0.002,-0.009,-27.9,-254.4,-9.9,141.25,11.26,-140.78
0.011,-0.53,-0.881,0.032,-0.001,-0.002,-27.15,-256.35,-9.9,141.03,11.24,-140.83
0.011,-0.53,-0.881,0.036,-0.007,0.006,-28.05,-254.55,-9.75,140.82,11.22,-140.88
0.012,-0.526,-0.877,0.03,0.0,0.015,-27.75,-254.25,-10.8,140.6,11.2,-140.93
0.01,-0.529,-0.884,0.028,0.002,0.011,-28.2,-255.15,-9.9,140.39,11.19,-140.98
0.01,-0.529,-0.884,0.037,-0.001,0.003,-28.2,-255.15,-9.9,140.17,11.17,-141.03
0.013,-0.528,-0.887,0.037,0.003,-0.021,-27.15,-255.15,-10.2,139.96,11.15,-141.09
0.017,-0.529,-0.88,0.037,0.001,-0.023,-27.75,-255.3,-9.75,139.74,11.13,-141.13
0.023,-0.53,-0.881,0.036,0.005,-0.018,-27.9,-254.7,-10.65,139.53,11.1,-141.18
0.023,-0.53,-0.881,0.028,0.0,0.01,-27.75,-255.3,-10.05,139.32,11.07,-141.23
0.01,-0.529,-0.884,0.031,-0.004,0.019,-27.75,-255.3,-10.05,139.1,11.05,-141.28
0.015,-0.529,-0.887,0.029,-0.001,0.028,-27.75,-255.3,-10.05,138.89,11.03,-141.33
0.015,-0.529,-0.887,0.033,0.001,0.01,-28.2,-255.15,-11.4,138.68,11.01,-141.38
0.016,-0.529,-0.889,0.039,0.004,-0.006,-27.3,-256.05,-10.35,138.47,10.98,-141.43
0.019,-0.53,-0.883,0.035,0.002,-0.029,-27.75,-254.55,-11.1,138.26,10.95,-141.48
0.02,-0.519,-0.88,0.04,-0.003,-0.023,-27.75,-254.55,-11.1,138.05,10.93,-141.54
0.02,-0.519,-0.88,0.034,0.001,-0.019,-27.75,-254.55,-11.1,137.84,10.9,-141.59
0.012,-0.523,-0.882,0.031,-0.001,0.017,-27.45,-254.4,-9.9,137.63,10.88,-141.64
0.015,-0.526,-0.885,0.032,-0.002,0.025,-28.05,-256.05,-11.1,137.42,10.85,-141.69
0.015,-0.526,-0.885,0.028,-0.002,0.025,-27.75,-255.0,-10.35,137.21,10.83,-141.75
0.015,-0.529,-0.882,0.028,0.001,-0.0,-27.45,-255.6,-9.15,137.0,10.81,-141.79
0.016,-0.533,-0.878,0.039,0.001,-0.017,-27.45,-255.6,-9.15,136.79,10.78,-141.83
0.015,-0.526,-0.881,0.041,-0.003,-0.032,-27.3,-255.75,-10.35,136.58,10.76,-141.88
0.015,-0.526,-0.881,0.043,0.001,-0.029,-26.7,-253.2,-10.65,136.38,10.73,-141.93
0.018,-0.52,-0.88,0.039,-0.001,-0.011,-28.2,-253.95,-10.95,136.17,10.71,-141.98
0.013,-0.526,-0.879,0.03,-0.003,0.023,-28.8,-255.3,-10.05,135.96,10.69,-142.03
0.015,-0.53,-0.884,0.027,0.0,0.032,-28.8,-255.3,-10.05,135.76,10.66,-142.08
0.015,-0.53,-0.884,0.028,-0.0,0.029,-27.0,-255.0,-9.75,135.55,10.64,-142.12
0.01,-0.532,-0.876,0.039,-0.004,-0.011,-27.3,-254.55,-10.8,135.35,10.62,-142.16
0.01,-0.526,-0.881,0.034,0.004,-0.025,-28.05,-255.3,-9.3,135.14,10.6,-142.21
0.01,-0.526,-0.881,0.037,0.007,-0.032,-28.5,-255.0,-10.05,134.93,10.58,-142.26
0.011,-0.528,-0.883,0.038,0.001,-0.019,-28.5,-255.0,-10.05,134.73,10.56,-142.3
0.018,-0.525,-0.879,0.035,0.001,-0.001,-27.3,-255.3,-9.75,134.53,10.53,-142.35
0.014,-0.527,-0.88,0.031,-0.0,0.026,-26.7,-253.65,-10.2,134.32,10.5,-142.4
0.014,-0.527,-0.88,0.017,-0.002,0.036,-27.75,-256.05,-9.0,134.12,10.48,-142.44
0.011,-0.528,-0.886,0.032,-0.004,0.022,-27.15,-254.7,-10.2,133.92,10.45,-142.49
0.01,-0.53,-0.882,0.037,0.002,-0.017,-27.15,-254.7,-10.2,133.71,10.43,-142.53
0.01,-0.53,-0.882,0.034,0.004,-0.029,-26.25,-256.05,-10.35,133.51,10.41,-142.58
0.008,-0.532,-0.876,0.043,0.001,-0.027,-27.9,-255.6,-11.4,133.31,10.39,-142.62
0.019,-0.526,-0.878,0.034,-0.001,-0.01,-27.75,-255.0,-10.8,133.11,10.36,-142.66
0.013,-0.528,-0.882,0.037,-0.0,0.009,-27.45,-255.6,-9.9,132.91,10.33,-142.71
0.013,-0.528,-0.882,0.028,-0.003,0.031,-27.45,-255.6,-9.9,132.71,10.31,-142.75
0.011,-0.532,-0.879,0.026,-0.001,0.029,-28.5,-254.25,-10.8,132.51,10.29,-142.79
0.015,-0.533,-0.884,0.029,-0.006,0.011,-27.45,-255.15,-10.65,132.31,10.26,-142.83
0.015,-0.533,-0.884,0.035,0.004,-0.029,-27.15,-255.15,-10.65,132.11,10.23,-142.87
0.015,-0.532,-0.885,0.045,0.003,-0.033,-27.45,-256.35,-11.4,131.92,10.2,-142.92
0.014,-0.529,-0.885,0.042,-0.002,-0.023,-27.45,-256.35,-11.4,131.72,10.18,-142.96
0.016,-0.523,-0.884,0.032,0.003,-0.001,-27.45,-256.35,-11.4,131.53,10.15,-143.01
0.016,-0.523,-0.884,0.03,0.003,0.017,-27.75,-254.55,-9.75,131.33,10.12,-143.06
0.011,-0.527,-0.877,0.028,-0.005,0.03,-26.55,-255.0,-10.8,131.13,10.09,-143.1
0.013,-0.532,-0.874,0.033,-0.0,0.021,-27.75,-254.55,-10.05,130.94,10.07,-143.13
0.008,-0.531,-0.884,0.031,0.003,0.004,-27.45,-254.7,-9.9,130.74,10.05,-143.18
0.008,-0.531,-0.884,0.037,0.006,-0.03,-27.45,-254.7,-9.9,130.55,10.03,-143.22
0.015,-0.527,-0.878,0.041,0.001,-0.031,-26.25,-253.8,-10.35,130.35,10.0,-143.26
0.017,-0.526,-0.882,0.031,0.002,-0.009,-27.3,-253.35,-11.1,130.16,9.96,-143.3
0.017,-0.526,-0.882,0.032,-0.001,0.009,-28.05,-253.35,-10.05,129.96,9.93,-143.35
0.014,-0.525,-0.88,0.019,-0.002,0.025,-27.9,-254.4,-9.9,129.77,9.91,-143.39
0.014,-0.527,-0.884,0.03,-0.003,0.024,-27.9,-254.4,-9.9,129.58,9.88,-143.43
0.011,-0.532,-0.881,0.027,-0.003,0.011,-26.55,-254.55,-10.05,129.38,9.85,-143.47
0.011,-0.532,-0.881,0.036,0.002,-0.005,-28.05,-256.5,-10.8,129.19,9.83,-143.51
0.016,-0.533,-0.883,0.043,0.003,-0.034,-27.75,-255.0,-11.1,129.0,9.8,-143.55
0.021,-0.53,-0.887,0.038,0.004,-0.033,-27.15,-254.7,-8.7,128.81,9.76,-143.59
0.021,-0.53,-0.887,0.029,0.001,-0.004,-27.15,-254.7,-8.7,128.61,9.73,-143.63
0.017,-0.526,-0.879,0.029,-0.002,0.017,-27.3,-254.25,-10.05,128.42,9.7,-143.67
0.013,-0.52,-0.877,0.032,0.0,0.024,-27.0,-255.75,-10.35,128.23,9.67,-143.72
0.016,-0.52,-0.883,0.033,-0.001,0.012,-27.0,-254.55,-10.35,128.05,9.64,-143.77
0.016,-0.52,-0.883,0.03,0.005,-0.004,-28.95,-255.15,-10.2,127.86,9.61,-143.81
0.018,-0.529,-0.877,0.039,-0.005,-0.013,-28.95,-255.15,-10.2,127.67,9.58,-143.85
0.013,-0.525,-0.883,0.042,-0.004,-0.031,-28.05,-257.7,-9.3,127.48,9.56,-143.89
0.013,-0.525,-0.883,0.039,0.0,-0.023,-27.45,-255.6,-10.2,127.29,9.53,-143.94
0.016,-0.524,-0.879,0.033,-0.004,0.012,-29.85,-255.75,-9.75,127.1,9.5,-143.98
0.015,-0.528,-0.884,0.027,-0.002,0.024,-26.7,-255.15,-10.65,126.91,9.47,-144.02
0.02,-0.532,-0.882,0.027,-0.009,0.023,-26.7,-255.15,-10.65,126.73,9.43,-144.05
0.02,-0.532,-0.882,0.034,-0.002,0.004,-28.65,-255.9,-10.2,126.54,9.4,-144.09
0.015,-0.525,-0.884,0.039,-0.003,-0.015,-26.4,-253.65,-9.45,126.36,9.37,-144.13
0.018,-0.524,-0.881,0.037,0.003,-0.024,-27.3,-255.0,-10.05,126.17,9.34,-144.17
0.018,-0.524,-0.881,0.035,0.005,-0.024,-27.9,-254.4,-10.65,125.99,9.31,-144.21
0.012,-0.531,-0.885,0.034,-0.004,-0.012,-27.9,-254.4,-10.65,125.8,9.28,-144.25
0.016,-0.525,-0.878,0.029,-0.0,0.023,-27.9,-254.4,-10.65,125.62,9.25,-144.29
0.011,-0.527,-0.875,0.03,-0.002,0.03,-27.3,-255.0,-9.75,125.43,9.22,-144.32
0.011,-0.527,-0.875,0.023,-0.003,0.025,-28.2,-256.35,-8.4,125.25,9.2,-144.36
0.009,-0.525,-0.884,0.034,0.0,-0.003,-26.25,-255.0,-10.35,125.07,9.17,-144.4
0.013,-0.525,-0.879,0.04,0.003,-0.02,-26.55,-255.3,-10.05,124.89,9.14,-144.43
0.013,-0.525,-0.879,0.043,0.008,-0.026,-26.55,-255.3,-10.05,124.7,9.11,-144.47
0.015,-0.524,-0.88,0.04,0.001,-0.023,-26.55,-255.0,-10.35,124.52,9.08,-144.51
0.016,-0.521,-0.881,0.031,0.001,-0.006,-26.25,-254.25,-10.8,124.35,9.05,-144.55
0.011,-0.525,-0.884,0.032,-0.004,0.014,-27.3,-254.55,-10.05,124.17,9.02,-144.59
0.011,-0.525,-0.884,0.029,0.005,0.024,-25.95,-255.6,-11.4,123.99,8.99,-144.63
0.015,-0.528,-0.879,0.032,-0.005,0.019,-25.95,-255.6,-11.4,123.81,8.96,-144.67
0.013,-0.526,-0.882,0.041,-0.001,-0.01,-27.0,-254.55,-9.0,123.63,8.93,-144.7
0.013,-0.53,-0.881,0.04,0.002,-0.021,-28.05,-255.75,-11.1,123.45,8.9,-144.74
0.013,-0.53,-0.881,0.043,0.0,-0.026,-29.4,-255.9,-11.7,123.28,8.87,-144.77
0.015,-0.524,-0.876,0.035,0.004,-0.013,-28.5,-255.0,-10.35,123.1,8.84,-144.81
0.013,-0.526,-0.882,0.033,-0.0,0.005,-28.5,-255.0,-10.35,122.92,8.81,-144.84
0.013,-0.526,-0.882,0.03,-0.003,0.019,-26.55,-254.55,-9.75,122.74,8.78,-144.88
0.012,-0.535,-0.884,0.032,-0.006,0.018,-28.05,-254.25,-9.0,122.57,8.76,-144.91
0.009,-0.531,-0.884,0.034,0.002,0.009,-26.7,-255.15,-9.15,122.39,8.73,-144.94
0.012,-0.526,-0.878,0.041,0.002,-0.017,-26.55,-255.0,-11.1,122.22,8.7,-144.98
0.012,-0.526,-0.878,0.041,0.003,-0.028,-26.55,-255.0,-11.1,122.04,8.67,-145.01
0.017,-0.529,-0.877,0.04,0.007,-0.026,-28.2,-254.7,-10.2,121.87,8.64,-145.04
0.018,-0.523,-0.882,0.037,0.001,0.0,-27.9,-253.95,-10.95,121.69,8.6,-145.08
0.018,-0.523,-0.882,0.028,-0.005,0.015,-26.55,-254.25,-9.75,121.52,8.57,-145.12
0.012,-0.525,-0.88,0.028,-0.005,0.027,-28.05,-255.3,-10.05,121.35,8.54,-145.15
0.009,-0.529,-0.881,0.028,-0.001,0.015,-28.05,-255.3,-10.35,121.17,8.52,-145.18
0.011,-0.53,-0.878,0.032,-0.004,0.003,-28.05,-255.3,-10.35,121.0,8.49,-145.21
0.011,-0.53,-0.878,0.031,-0.001,-0.017,-26.4,-254.4,-9.45,120.83,8.46,-145.24
0.01,-0.525,-0.88,0.033,0.004,-0.03,-28.2,-254.4,-9.15,120.66,8.43,-145.28
0.014,-0.529,-0.883,0.038,0.004,-0.017,-27.75,-255.75,-9.3,120.49,8.4,-145.31
0.014,-0.529,-0.883,0.028,-0.004,0.011,-27.0,-255.0,-10.35,120.32,8.37,-145.34
0.015,-0.524,-0.879,0.032,-0.008,0.025,-27.0,-255.0,-10.35,120.15,8.34,-145.38
0.013,-0.528,-0.88,0.029,-0.002,0.025,-27.0,-255.75,-10.05,119.98,8.31,-145.41
0.013,-0.527,-0.881,0.032,-0.002,0.003,-27.3,-255.3,-11.1,119.81,8.28,-145.44
0.013,-0.527,-0.881,0.034,0.002,-0.011,-27.9,-255.9,-9.45,119.64,8.25,-145.47
0.017,-0.523,-0.885,0.038,0.003,-0.021,-27.3,-254.55,-10.35,119.47,8.21,-145.51
0.016,-0.528,-0.881,0.035,0.004,-0.026,-27.3,-254.55,-10.35,119.31,8.18,-145.54
0.016,-0.528,-0.881,0.036,0.003,-0.015,-27.9,-254.4,-10.2,119.14,8.15,-145.57
0.018,-0.528,-0.882,0.035,-0.004,0.015,-26.7,-254.4,-11.4,118.98,8.11,-145.6
0.009,-0.526,-0.883,0.029,-0.001,0.026,-27.0,-255.3,-9.75,118.81,8.08,-145.64
0.008,-0.528,-0.879,0.026,-0.005,0.021,-27.0,-255.3,-10.05,118.64,8.06,-145.67
0.008,-0.528,-0.879,0.035,0.0,-0.003,-28.5,-254.55,-10.05,118.48,8.03,-145.69
0.013,-0.524,-0.88,0.035,0.006,-0.019,-26.7,-254.7,-9.9,118.31,8.0,-145.73
0.012,-0.526,-0.887,0.041,0.001,-0.022,-27.45,-255.15,-10.95,118.15,7.97,-145.76
0.012,-0.526,-0.887,0.034,0.006,-0.017,-27.0,-255.0,-10.05,117.99,7.94,-145.79
0.017,-0.525,-0.881,0.035,-0.002,-0.004,-27.45,-255.15,-10.65,117.83,7.91,-145.83
0.02,-0.527,-0.887,0.031,0.001,0.023,-27.45,-253.95,-10.95,117.66,7.87,-145.86
0.01,-0.524,-0.881,0.034,-0.002,0.024,-26.55,-253.05,-10.05,117.5,7.84,-145.89
0.01,-0.524,-0.881,0.025,-0.003,0.018,-27.45,-255.9,-10.2,117.34,7.81,-145.92
0.011,-0.534,-0.884,0.037,0.004,-0.013,-27.3,-255.0,-10.05,117.18,7.78,-145.95
0.013,-0.523,-0.88,0.034,0.007,-0.028,-26.55,-255.0,-10.35,117.02,7.75,-145.98
0.013,-0.526,-0.885,0.045,0.005,-0.024,-26.55,-255.0,-10.35,116.86,7.72,-146.01
0.013,-0.526,-0.885,0.034,-0.0,-0.007,-24.75,-256.95,-10.35,116.7,7.69,-146.04
0.015,-0.526,-0.88,0.037,-0.005,0.006,-27.9,-255.15,-10.95,116.54,7.65,-146.07
0.014,-0.525,-0.884,0.028,-0.001,0.019,-27.75,-255.75,-10.05,116.38,7.62,-146.1
0.014,-0.525,-0.884,0.027,-0.002,0.02,-27.3,-255.3,-9.75,116.23,7.59,-146.13
0.01,-0.526,-0.877,0.032,0.002,0.008,-27.3,-255.0,-9.3,116.07,7.56,-146.16
0.01,-0.53,-0.88,0.037,0.002,-0.027,-27.3,-255.0,-9.3,115.91,7.53,-146.18
0.017,-0.524,-0.884,0.037,-0.001,-0.021,-27.15,-254.4,-10.2,115.75,7.5,-146.21
0.017,-0.524,-0.884,0.036,0.001,-0.027,-27.15,-253.95,-9.9,115.6,7.47,-146.25
0.015,-0.524,-0.88,0.034,0.001,-0.004,-26.25,-253.8,-11.1,115.44,7.43,-146.27
0.016,-0.524,-0.877,0.028,-0.005,0.009,-27.9,-253.65,-10.2,115.29,7.4,-146.3
0.016,-0.524,-0.877,0.029,0.001,0.022,-27.9,-253.65,-10.2,115.13,7.37,-146.33
0.018,-0.525,-0.883,0.034,-0.0,0.013,-27.15,-254.7,-9.9,114.98,7.33,-146.36
0.012,-0.529,-0.885,0.036,-0.002,0.001,-26.7,-255.9,-10.2,114.82,7.3,-146.38
0.013,-0.524,-0.879,0.035,0.003,-0.021,-26.25,-255.0,-9.75,114.67,7.27,-146.41
0.013,-0.524,-0.879,0.036,0.004,-0.023,-27.75,-254.55,-10.05,114.51,7.24,-146.44
0.012,-0.524,-0.881,0.038,0.001,-0.017,-27.75,-254.55,-10.05,114.36,7.21,-146.47
0.019,-0.532,-0.882,0.031,0.004,0.005,-27.75,-255.0,-9.0,114.21,7.17,-146.49
0.019,-0.532,-0.882,0.033,0.0,0.019,-27.0,-255.3,-10.35,114.06,7.13,-146.51
0.017,-0.527,-0.881,0.029,-0.003,0.022,-27.45,-255.6,-10.65,113.9,7.1,-146.54
0.011,-0.529,-0.883,0.03,-0.0,0.009,-27.45,-254.7,-9.9,113.75,7.07,-146.56
0.015,-0.528,-0.877,0.029,-0.0,-0.011,-27.3,-255.75,-10.05,113.6,7.04,-146.58
0.015,-0.528,-0.877,0.037,0.0,-0.02,-27.3,-253.8,-10.8,113.45,7.01,-146.61
0.012,-0.528,-0.879,0.04,0.001,-0.018,-26.7,-253.95,-10.65,113.3,6.98,-146.63
0.01,-0.52,-0.88,0.033,0.003,-0.023,-27.3,-253.35,-10.8,113.16,6.95,-146.66
0.01,-0.52,-0.88,0.031,-0.002,0.013,-26.7,-254.4,-9.45,113.01,6.92,-146.69
0.012,-0.53,-0.877,0.029,0.001,0.019,-26.55,-255.0,-10.35,112.86,6.89,-146.71
0.018,-0.527,-0.883,0.029,-0.0,0.02,-27.15,-255.6,-9.15,112.71,6.86,-146.73
0.015,-0.527,-0.885,0.031,0.0,-0.005,-26.4,-255.6,-10.95,112.57,6.82,-146.76
0.015,-0.527,-0.885,0.034,0.002,-0.013,-27.3,-255.75,-10.8,112.42,6.79,-146.79
0.013,-0.527,-0.881,0.036,-0.004,-0.02,-27.45,-255.15,-9.45,112.27,6.76,-146.81
0.014,-0.523,-0.881,0.034,0.003,-0.018,-28.05,-254.55,-10.35,112.13,6.73,-146.84
0.02,-0.531,-0.879,0.034,-0.0,-0.001,-27.45,-255.15,-9.9,111.98,6.69,-146.86
0.02,-0.531,-0.879,0.029,-0.002,0.014,-28.5,-255.75,-9.3,111.84,6.66,-146.87
0.014,-0.528,-0.881,0.028,0.002,0.019,-25.8,-254.55,-10.05,111.69,6.63,-146.9
0.009,-0.522,-0.883,0.03,0.003,0.013,-25.8,-254.55,-11.55,111.55,6.6,-146.92
0.009,-0.522,-0.883,0.04,-0.001,-0.012,-26.55,-254.25,-10.35,111.41,6.57,-146.95
0.009,-0.535,-0.879,0.04,0.001,-0.017,-26.55,-254.25,-10.35,111.27,6.55,-146.97
0.016,-0.525,-0.882,0.038,0.001,-0.025,-27.3,-256.05,-10.35,111.13,6.51,-146.99
0.014,-0.528,-0.885,0.04,0.001,-0.01,-27.0,-255.75,-10.05,110.98,6.48,-147.01
0.014,-0.528,-0.885,0.033,0.002,0.007,-27.15,-254.7,-10.65,110.84,6.45,-147.04
0.014,-0.53,-0.879,0.026,-0.002,0.019,-27.15,-254.7,-9.15,110.7,6.42,-147.06
0.017,-0.528,-0.877,0.033,0.003,0.021,-27.15,-254.7,-9.15,110.56,6.39,-147.08
0.017,-0.528,-0.877,0.031,-0.002,0.01,-27.3,-255.0,-9.75,110.42,6.35,-147.09
0.015,-0.524,-0.878,0.037,0.002,-0.015,-26.4,-256.35,-10.2,110.28,6.32,-147.12
0.014,-0.527,-0.879,0.038,0.0,-0.022,-28.2,-255.9,-8.4,110.14,6.29,-147.14
0.015,-0.524,-0.879,0.039,0.003,-0.022,-28.65,-254.7,-10.95,110.0,6.26,-147.16
0.015,-0.524,-0.879,0.035,0.001,-0.0,-28.65,-254.7,-10.95,109.86,6.23,-147.18
0.018,-0.526,-0.881,0.026,-0.004,0.01,-27.9,-255.6,-9.45,109.72,6.2,-147.2
0.015,-0.524,-0.882,0.031,-0.005,0.02,-27.0,-254.55,-9.0,109.59,6.16,-147.23
0.015,-0.524,-0.882,0.028,0.002,0.018,-27.75,-254.25,-9.3,109.45,6.13,-147.25
0.013,-0.524,-0.882,0.029,0.003,-0.002,-27.0,-254.25,-10.05,109.31,6.1,-147.27
0.013,-0.527,-0.884,0.038,-0.0,-0.021,-27.15,-253.95,-11.4,109.18,6.08,-147.29
0.016,-0.521,-0.879,0.034,0.003,-0.026,-26.55,-255.3,-10.05,109.04,6.04,-147.32
0.016,-0.521,-0.879,0.037,-0.001,-0.021,-27.15,-256.35,-9.9,108.91,6.01,-147.34
0.013,-0.525,-0.882,0.029,-0.001,0.008,-26.7,-255.15,-10.2,108.78,5.98,-147.36
0.019,-0.526,-0.879,0.033,-0.001,0.012,-27.3,-255.3,-11.1,108.64,5.95,-147.38
0.019,-0.526,-0.879,0.029,-0.004,0.015,-27.0,-255.3,-9.75,108.51,5.91,-147.4
0.012,-0.531,-0.88,0.033,-0.001,0.011,-27.9,-255.9,-10.2,108.38,5.88,-147.42
0.012,-0.53,-0.883,0.035,-0.0,-0.002,-27.3,-255.3,-11.1,108.24,5.86,-147.43
0.019,-0.528,-0.881,0.034,-0.001,-0.021,-27.0,-254.55,-10.35,108.11,5.82,-147.45
0.019,-0.528,-0.881,0.038,0.001,-0.023,-28.5,-254.25,-10.35,107.98,5.79,-147.47
0.011,-0.527,-0.88,0.037,0.003,-0.02,-26.4,-254.4,-9.9,107.85,5.76,-147.49
0.015,-0.527,-0.883,0.037,-0.005,0.01,-27.15,-254.7,-9.45,107.72,5.73,-147.51
0.015,-0.527,-0.883,0.031,0.001,0.018,-26.25,-255.0,-9.0,107.59,5.7,-147.53
0.01,-0.526,-0.879,0.03,0.002,0.018,-26.55,-255.3,-11.85,107.46,5.67,-147.55
0.015,-0.526,-0.885,0.032,-0.003,0.007,-27.0,-255.75,-10.05,107.33,5.64,-147.57
0.008,-0.527,-0.886,0.037,0.003,-0.007,-26.4,-256.65,-9.9,107.2,5.62,-147.59
0.008,-0.527,-0.886,0.037,0.001,-0.022,-26.4,-256.65,-9.9,107.08,5.59,-147.61
0.015,-0.529,-0.881,0.038,-0.003,-0.019,-26.7,-255.15,-10.65,106.95,5.56,-147.62
0.014,-0.526,-0.88,0.039,-0.006,-0.01,-27.3,-254.55,-11.1,106.82,5.53,-147.64
0.014,-0.526,-0.88,0.029,-0.007,0.013,-27.45,-254.7,-11.4,106.7,5.5,-147.66
0.016,-0.525,-0.879,0.03,-0.003,0.02,-26.55,-255.0,-9.0,106.57,5.47,-147.67
0.01,-0.534,-0.879,0.032,-0.003,0.019,-26.55,-255.0,-9.0,106.45,5.45,-147.68
0.011,-0.525,-0.883,0.029,-0.003,-0.008,-27.15,-255.15,-9.15,106.32,5.42,-147.7
0.011,-0.525,-0.883,0.03,0.002,-0.013,-26.7,-254.4,-10.2,106.2,5.39,-147.72
0.013,-0.525,-0.88,0.038,0.004,-0.023,-25.95,-254.7,-10.95,106.07,5.36,-147.74
0.016,-0.521,-0.884,0.034,0.001,-0.009,-27.45,-255.9,-10.2,105.95,5.33,-147.76
0.015,-0.524,-0.882,0.034,-0.005,0.003,-27.45,-255.9,-10.2,105.83,5.3,-147.78
0.015,-0.524,-0.882,0.032,-0.002,0.012,-26.7,-255.15,-10.2,105.71,5.27,-147.8
0.015,-0.528,-0.883,0.03,0.001,0.019,-27.3,-254.55,-11.1,105.58,5.24,-147.82
0.016,-0.527,-0.883,0.029,-0.001,0.014,-27.0,-253.35,-9.3,105.46,5.21,-147.83
0.016,-0.527,-0.883,0.033,0.006,-0.015,-28.5,-255.0,-10.8,105.34,5.18,-147.85
0.015,-0.522,-0.882,0.032,0.001,-0.025,-28.65,-255.15,-10.65,105.22,5.16,-147.87
0.018,-0.526,-0.884,0.039,-0.001,-0.018,-28.8,-254.25,-11.1,105.1,5.12,-147.89
0.016,-0.526,-0.884,0.037,0.0,-0.004,-26.7,-256.65,-10.2,104.98,5.09,-147.9
0.016,-0.526,-0.884,0.033,0.002,0.005,-27.15,-254.7,-10.2,104.86,5.06,-147.92
0.015,-0.532,-0.885,0.03,0.003,0.018,-27.45,-255.6,-9.9,104.74,5.03,-147.93
0.019,-0.527,-0.88,0.029,-0.001,0.014,-26.55,-254.55,-11.55,104.62,5.0,-147.95
0.019,-0.527,-0.88,0.035,0.0,0.012,-26.55,-255.3,-10.8,104.5,4.97,-147.96
0.012,-0.527,-0.884,0.032,0.001,-0.019,-28.05,-253.35,-10.35,104.38,4.94,-147.98
0.007,-0.525,-0.883,0.039,0.003,-0.023,-27.75,-255.3,-10.35,104.27,4.92,-147.99
0.014,-0.524,-0.878,0.037,0.006,-0.02,-27.75,-255.0,-11.55,104.15,4.9,-148.01
0.014,-0.524,-0.878,0.032,0.001,-0.001,-25.65,-255.15,-9.9,104.04,4.87,-148.02
0.017,-0.523,-0.879,0.034,-0.005,0.013,-25.65,-255.15,-9.9,103.92,4.83,-148.04
0.014,-0.53,-0.881,0.031,-0.003,0.019,-27.75,-255.75,-9.75,103.8,4.81,-148.05
0.014,-0.53,-0.881,0.03,-0.004,0.01,-26.55,-255.0,-10.05,103.69,4.78,-148.06
0.012,-0.524,-0.884,0.032,-0.006,0.001,-26.25,-256.5,-10.8,103.58,4.75,-148.08
0.005,-0.528,-0.88,0.041,0.007,-0.017,-26.4,-254.7,-9.9,103.46,4.73,-148.09
0.013,-0.531,-0.881,0.034,0.003,-0.022,-26.4,-254.7,-9.9,103.35,4.71,-148.1
0.013,-0.531,-0.881,0.036,-0.004,-0.015,-28.05,-256.05,-11.1,103.24,4.68,-148.11
0.012,-0.529,-0.882,0.032,-0.008,0.008,-26.4,-253.95,-10.2,103.13,4.65,-148.12
0.014,-0.529,-0.883,0.037,-0.003,0.016,-26.55,-255.0,-10.35,103.01,4.63,-148.13
0.014,-0.529,-0.883,0.033,-0.002,0.013,-27.75,-253.8,-11.55,102.9,4.6,-148.15
0.01,-0.532,-0.883,0.035,0.0,0.009,-27.75,-253.8,-11.55,102.79,4.58,-148.16
0.009,-0.529,-0.883,0.037,-0.003,-0.005,-27.45,-255.15,-11.7,102.68,4.56,-148.17
0.012,-0.531,-0.883,0.032,0.003,-0.02,-27.0,-254.25,-10.35,102.57,4.53,-148.18
0.012,-0.531,-0.883,0.042,0.002,-0.015,-27.75,-254.55,-10.05,102.46,4.51,-148.19
0.016,-0.525,-0.884,0.037,-0.003,-0.012,-27.15,-255.6,-9.9,102.35,4.48,-148.2
0.015,-0.53,-0.882,0.028,-0.002,0.011,-28.05,-256.05,-10.05,102.24,4.45,-148.21
0.015,-0.53,-0.882,0.029,-0.004,0.013,-28.2,-253.95,-10.2,102.13,4.42,-148.22
0.01,-0.528,-0.884,0.03,-0.003,0.014,-27.0,-255.0,-10.8,102.02,4.4,-148.23
0.013,-0.53,-0.88,0.035,-0.001,0.002,-26.55,-254.55,-10.05,101.92,4.38,-148.24
0.012,-0.53,-0.876,0.035,0.007,-0.008,-26.7,-253.95,-9.9,101.81,4.35,-148.25
0.012,-0.53,-0.876,0.037,0.0,-0.023,-27.15,-254.4,-9.9,101.7,4.32,-148.26
0.018,-0.526,-0.881,0.032,0.0,-0.018,-26.55,-253.8,-11.55,101.6,4.29,-148.27
0.016,-0.526,-0.88,0.04,-0.005,-0.009,-26.7,-255.9,-9.9,101.49,4.26,-148.28
0.012,-0.526,-0.88,0.025,-0.001,0.008,-27.75,-256.05,-11.55,101.39,4.24,-148.29
0.012,-0.526,-0.88,0.029,-0.002,0.009,-26.55,-254.55,-11.1,101.28,4.22,-148.3
0.009,-0.531,-0.88,0.032,-0.005,0.012,-25.8,-254.25,-11.1,101.18,4.19,-148.31
0.015,-0.523,-0.887,0.031,0.001,-0.004,-25.95,-253.95,-10.65,101.08,4.17,-148.33
0.015,-0.523,-0.887,0.033,0.005,-0.011,-27.3,-254.55,-10.8,100.98,4.14,-148.34
0.013,-0.53,-0.883,0.04,0.002,-0.017,-27.15,-254.4,-9.45,100.87,4.11,-148.35
0.019,-0.523,-0.881,0.037,0.002,-0.007,-27.3,-256.05,-10.8,100.77,4.08,-148.37
0.008,-0.526,-0.883,0.033,-0.002,0.004,-27.15,-255.15,-10.2,100.67,4.06,-148.38
0.008,-0.526,-0.883,0.033,-0.001,0.011,-27.15,-255.15,-10.2,100.57,4.04,-148.39
0.01,-0.531,-0.881,0.03,-0.001,0.014,-27.75,-254.55,-10.8,100.47,4.02,-148.4
0.016,-0.527,-0.884,0.031,0.001,0.002,-27.45,-254.7,-10.65,100.37,4.0,-148.41
0.016,-0.527,-0.884,0.034,-0.0,-0.012,-27.3,-255.0,-9.75,100.27,3.97,-148.42
0.012,-0.527,-0.879,0.039,0.002,-0.014,-26.25,-253.8,-10.8,100.17,3.94,-148.43
0.016,-0.529,-0.884,0.033,0.0,-0.008,-26.25,-253.8,-10.8,100.07,3.92,-148.44
0.015,-0.526,-0.883,0.038,0.007,0.001,-25.65,-255.15,-9.45,99.97,3.89,-148.45
0.015,-0.526,-0.883,0.035,-0.002,0.007,-26.7,-254.4,-9.9,99.87,3.86,-148.47
0.011,-0.529,-0.883,0.03,0.002,0.013,-25.95,-255.9,-9.45,99.78,3.84,-148.47
0.01,-0.525,-0.883,0.03,0.001,0.004,-27.75,-253.8,-10.8,99.68,3.82,-148.49
0.01,-0.525,-0.883,0.033,0.001,-0.001,-27.75,-253.8,-10.8,99.58,3.8,-148.5
0.01,-0.527,-0.88,0.035,0.0,-0.013,-26.7,-253.95,-10.65,99.48,3.78,-148.51
0.013,-0.523,-0.882,0.034,0.0,-0.014,-27.75,-254.25,-10.8,99.39,3.76,-148.52
0.01,-0.525,-0.882,0.037,-0.001,-0.002,-26.55,-255.75,-10.05,99.29,3.73,-148.53
0.01,-0.525,-0.882,0.035,0.001,-0.002,-25.8,-255.75,-9.75,99.2,3.71,-148.54
0.013,-0.523,-0.881,0.031,-0.001,0.006,-27.75,-254.25,-9.3,99.1,3.69,-148.55
0.013,-0.53,-0.88,0.03,0.0,0.012,-26.55,-253.35,-10.05,99.01,3.66,-148.56
0.013,-0.53,-0.88,0.034,-0.002,0.002,-25.95,-254.7,-10.65,98.92,3.64,-148.56
0.018,-0.522,-0.884,0.032,0.004,-0.009,-27.3,-255.3,-10.8,98.82,3.61,-148.58
0.015,-0.531,-0.882,0.037,0.001,-0.014,-28.2,-253.95,-10.2,98.73,3.59,-148.58
0.017,-0.524,-0.882,0.035,-0.003,-0.013,-28.2,-253.95,-10.2,98.63,3.56,-148.6
0.017,-0.524,-0.882,0.035,0.003,0.0,-27.75,-254.25,-11.85,98.54,3.53,-148.61
0.011,-0.533,-0.886,0.037,-0.003,0.006,-27.0,-254.55,-9.75,98.45,3.51,-148.61
0.013,-0.527,-0.884,0.029,-0.001,0.006,-27.45,-253.95,-9.45,98.36,3.49,-148.62
0.013,-0.527,-0.884,0.035,-0.005,0.002,-28.05,-254.25,-10.05,98.26,3.47,-148.63
0.014,-0.527,-0.877,0.029,0.001,-0.001,-28.05,-254.25,-10.05,98.17,3.45,-148.64
0.016,-0.53,-0.884,0.03,0.003,-0.013,-28.05,-254.25,-10.05,98.08,3.42,-148.64
0.019,-0.526,-0.878,0.038,0.001,-0.004,-26.25,-255.75,-9.3,97.99,3.39,-148.65
0.019,-0.526,-0.878,0.036,0.003,-0.006,-27.0,-256.5,-10.05,97.9,3.36,-148.66
0.011,-0.529,-0.882,0.031,0.0,0.002,-27.9,-255.15,-9.45,97.81,3.34,-148.66
0.016,-0.526,-0.879,0.031,-0.003,0.009,-27.9,-255.15,-9.45,97.72,3.32,-148.67
0.016,-0.526,-0.879,0.038,0.001,0.008,-27.9,-255.15,-9.45,97.63,3.29,-148.68
0.01,-0.525,-0.881,0.03,0.004,0.004,-27.3,-255.75,-9.75,97.54,3.27,-148.69
0.012,-0.522,-0.884,0.039,-0.0,-0.012,-26.55,-255.3,-10.8,97.46,3.25,-148.7
0.015,-0.525,-0.882,0.036,0.0,-0.003,-25.95,-254.4,-10.65,97.37,3.23,-148.71
0.015,-0.525,-0.882,0.033,0.0,-0.007,-27.0,-253.35,-10.05,97.28,3.2,-148.72
0.017,-0.53,-0.879,0.033,-0.003,0.002,-27.0,-253.35,-10.05,97.2,3.18,-148.72
0.013,-0.527,-0.884,0.036,0.001,0.008,-28.2,-255.6,-11.4,97.11,3.16,-148.73
0.013,-0.527,-0.884,0.034,-0.003,0.004,-27.3,-253.8,-10.35,97.03,3.14,-148.74
0.008,-0.528,-0.877,0.033,-0.003,0.003,-25.05,-255.3,-9.75,96.94,3.12,-148.74
0.012,-0.525,-0.876,0.03,0.0,0.0,-27.15,-255.6,-9.15,96.86,3.1,-148.75
0.013,-0.528,-0.884,0.042,-0.001,-0.008,-27.15,-255.6,-9.15,96.77,3.08,-148.75
0.013,-0.528,-0.884,0.04,-0.006,-0.008,-27.3,-254.25,-10.05,96.69,3.06,-148.76
0.014,-0.524,-0.883,0.036,0.002,-0.007,-27.0,-254.55,-10.35,96.61,3.04,-148.77
0.017,-0.527,-0.883,0.038,-0.002,0.002,-26.25,-254.55,-10.05,96.52,3.01,-148.78
0.017,-0.527,-0.883,0.032,-0.004,0.002,-27.0,-255.3,-10.8,96.44,2.98,-148.78
0.015,-0.528,-0.884,0.029,0.001,0.003,-27.0,-255.3,-10.8,96.36,2.96,-148.79
0.009,-0.523,-0.888,0.035,-0.006,0.003,-27.3,-255.3,-11.55,96.28,2.95,-148.8
0.014,-0.529,-0.885,0.038,0.003,-0.006,-26.7,-255.15,-9.9,96.2,2.93,-148.81
0.014,-0.529,-0.885,0.037,-0.003,-0.012,-26.4,-255.15,-8.7,96.12,2.9,-148.82
0.013,-0.531,-0.88,0.031,0.006,-0.01,-27.15,-255.15,-11.4,96.04,2.88,-148.82
0.013,-0.527,-0.883,0.035,0.0,-0.006,-27.15,-255.15,-11.4,95.96,2.86,-148.82
0.013,-0.527,-0.883,0.03,0.0,0.008,-27.0,-255.0,-10.05,95.88,2.84,-148.83
0.016,-0.527,-0.884,0.037,-0.001,0.002,-26.55,-255.3,-9.75,95.8,2.82,-148.84
0.009,-0.525,-0.885,0.031,0.003,0.005,-26.4,-254.7,-10.65,95.72,2.8,-148.85
0.013,-0.528,-0.875,0.037,-0.002,0.003,-27.3,-253.8,-10.05,95.64,2.78,-148.85
0.013,-0.528,-0.875,0.032,0.004,-0.002,-27.3,-253.8,-10.05,95.56,2.77,-148.85
0.01,-0.528,-0.886,0.037,0.001,-0.009,-27.3,-253.8,-10.05,95.49,2.75,-148.85
0.014,-0.524,-0.882,0.036,0.0,-0.007,-26.55,-255.3,-11.1,95.41,2.73,-148.86
0.014,-0.524,-0.882,0.037,-0.006,-0.005,-26.55,-254.55,-9.3,95.33,2.71,-148.87
0.009,-0.529,-0.88,0.038,-0.0,0.004,-27.0,-254.55,-10.05,95.26,2.69,-148.87
0.016,-0.527,-0.882,0.033,0.0,0.009,-25.8,-255.3,-10.35,95.18,2.67,-148.88
0.013,-0.529,-0.881,0.032,-0.004,0.007,-25.8,-255.3,-10.35,95.11,2.65,-148.88
0.013,-0.529,-0.881,0.032,0.005,-0.002,-26.55,-255.0,-8.55,95.03,2.63,-148.88
0.014,-0.525,-0.887,0.033,-0.001,-0.007,-27.0,-253.8,-10.05,94.96,2.61,-148.89
0.009,-0.529,-0.884,0.032,-0.001,-0.006,-27.0,-254.25,-10.05,94.88,2.59,-148.9
0.009,-0.529,-0.884,0.03,-0.003,-0.005,-27.9,-256.35,-10.65,94.81,2.58,-148.9
0.01,-0.525,-0.88,0.032,-0.002,-0.003,-27.9,-256.35,-10.65,94.73,2.57,-148.91
0.019,-0.524,-0.883,0.031,-0.005,0.006,-27.0,-253.35,-10.8,94.66,2.54,-148.92
0.01,-0.525,-0.881,0.029,0.001,0.007,-26.4,-254.4,-9.9,94.59,2.53,-148.92
0.01,-0.525,-0.881,0.038,-0.002,0.009,-25.2,-254.4,-9.9,94.52,2.51,-148.93
0.009,-0.526,-0.884,0.037,0.006,-0.004,-27.45,-254.7,-10.2,94.45,2.49,-148.94
0.013,-0.529,-0.884,0.033,0.002,-0.004,-27.45,-254.7,-10.2,94.37,2.48,-148.94
0.013,-0.529,-0.884,0.034,-0.001,-0.012,-26.25,-255.3,-11.1,94.3,2.46,-148.94
0.013,-0.526,-0.884,0.032,0.0,-0.008,-25.65,-255.15,-10.2,94.23,2.43,-148.95
0.016,-0.527,-0.88,0.034,0.001,-0.0,-27.45,-255.6,-10.65,94.16,2.41,-148.95
0.016,-0.529,-0.876,0.03,-0.001,0.0,-27.75,-255.3,-10.05,94.09,2.39,-148.95
0.016,-0.529,-0.876,0.037,0.001,0.006,-27.75,-255.3,-10.05,94.02,2.37,-148.95
0.013,-0.526,-0.882,0.027,-0.0,0.004,-27.0,-254.55,-10.8,93.95,2.35,-148.96
0.013,-0.525,-0.885,0.033,0.005,-0.003,-26.7,-254.7,-10.65,93.88,2.34,-148.96
0.013,-0.525,-0.885,0.036,0.001,-0.004,-27.45,-255.15,-11.7,93.81,2.32,-148.97
0.012,-0.527,-0.879,0.034,0.001,-0.007,-27.15,-255.15,-10.95,93.74,2.3,-148.97
0.012,-0.531,-0.879,0.031,-0.003,-0.007,-27.15,-255.15,-10.95,93.67,2.29,-148.97
0.012,-0.53,-0.886,0.033,0.002,0.001,-27.15,-255.15,-10.95,93.61,2.27,-148.98
0.012,-0.53,-0.886,0.036,-0.001,0.004,-27.3,-256.05,-10.35,93.54,2.25,-148.98
0.016,-0.53,-0.878,0.032,0.002,0.005,-27.9,-255.15,-11.4,93.47,2.23,-148.98
0.015,-0.523,-0.882,0.034,-0.003,-0.002,-27.0,-255.3,-11.55,93.4,2.21,-148.99
0.015,-0.523,-0.882,0.038,-0.001,-0.003,-26.7,-254.7,-9.9,93.34,2.19,-148.99
0.02,-0.531,-0.878,0.032,-0.001,-0.005,-26.7,-254.7,-9.9,93.27,2.17,-148.99
0.01,-0.526,-0.882,0.033,-0.001,-0.006,-25.2,-254.4,-9.45,93.21,2.15,-149.0
0.017,-0.524,-0.881,0.034,-0.0,-0.002,-25.8,-254.25,-10.8,93.15,2.13,-149.0
0.017,-0.524,-0.881,0.03,0.003,-0.001,-26.55,-255.3,-10.35,93.08,2.11,-149.01
0.012,-0.524,-0.875,0.032,0.001,0.006,-26.4,-254.4,-10.2,93.02,2.09,-149.01
0.013,-0.528,-0.882,0.035,0.001,0.001,-26.4,-254.4,-10.2,92.95,2.07,-149.01
0.013,-0.528,-0.882,0.034,0.003,0.0,-28.05,-255.3,-9.75,92.89,2.06,-149.02
0.007,-0.531,-0.885,0.031,-0.0,-0.007,-28.5,-254.25,-11.1,92.82,2.05,-149.02
0.018,-0.531,-0.885,0.035,0.0,-0.008,-26.55,-254.25,-10.05,92.76,2.03,-149.02
0.011,-0.53,-0.886,0.035,0.001,-0.008,-26.4,-256.35,-9.45,92.7,2.01,-149.02
0.011,-0.53,-0.886,0.034,-0.005,0.0,-26.4,-256.35,-9.45,92.63,2.0,-149.02
0.011,-0.527,-0.885,0.034,-0.001,0.004,-25.2,-254.7,-9.45,92.57,1.98,-149.03
0.011,-0.527,-0.877,0.031,0.001,0.009,-26.55,-256.05,-10.35,92.51,1.97,-149.03
0.011,-0.527,-0.877,0.032,0.004,-0.0,-26.7,-255.6,-9.9,92.45,1.95,-149.03
0.012,-0.525,-0.882,0.034,0.0,-0.004,-27.15,-255.15,-10.95,92.39,1.94,-149.04
0.016,-0.524,-0.881,0.033,-0.001,-0.004,-27.15,-255.15,-10.95,92.33,1.92,-149.04
0.01,-0.527,-0.881,0.038,0.001,-0.008,-27.15,-256.65,-10.2,92.27,1.91,-149.04
0.01,-0.527,-0.881,0.035,0.001,-0.002,-27.45,-255.15,-11.4,92.21,1.9,-149.04
0.016,-0.528,-0.88,0.035,0.001,-0.005,-27.45,-255.6,-10.2,92.15,1.88,-149.05
0.009,-0.524,-0.88,0.032,-0.003,-0.0,-26.4,-254.4,-10.2,92.09,1.87,-149.05
0.015,-0.526,-0.88,0.03,-0.003,0.003,-26.4,-254.4,-10.2,92.03,1.85,-149.05
0.015,-0.526,-0.88,0.039,-0.005,0.004,-26.4,-254.4,-10.2,91.97,1.83,-149.05
0.007,-0.524,-0.881,0.029,-0.003,-0.004,-28.2,-254.7,-10.65,91.91,1.82,-149.06
0.013,-0.524,-0.879,0.025,0.001,-0.004,-27.0,-254.25,-9.3,91.85,1.81,-149.06
0.013,-0.524,-0.879,0.037,0.003,-0.01,-26.55,-253.8,-11.55,91.79,1.79,-149.07
0.017,-0.527,-0.875,0.035,0.0,-0.005,-26.7,-254.7,-8.7,91.74,1.77,-149.07
0.013,-0.524,-0.879,0.035,-0.003,-0.004,-26.7,-254.7,-8.7,91.68,1.75,-149.07
0.012,-0.528,-0.885,0.028,-0.003,0.007,-25.95,-256.35,-9.9,91.62,1.74,-149.07
0.012,-0.528,-0.885,0.031,-0.002,0.007,-27.3,-255.75,-10.35,91.57,1.73,-149.08
0.015,-0.522,-0.886,0.033,-0.002,0.003,-26.7,-254.7,-9.45,91.51,1.71,-149.09
0.012,-0.528,-0.882,0.034,-0.001,-0.006,-26.4,-254.7,-10.65,91.46,1.69,-149.09
0.012,-0.528,-0.882,0.036,-0.002,-0.008,-26.4,-254.7,-10.65,91.4,1.68,-149.09
0.014,-0.526,-0.883,0.037,-0.001,-0.007,-27.3,-255.3,-10.35,91.34,1.66,-149.09
0.01,-0.526,-0.88,0.03,0.0,-0.001,-28.65,-254.7,-9.15,91.29,1.66,-149.1
0.012,-0.525,-0.883,0.031,0.001,0.002,-25.8,-256.05,-10.8,91.23,1.64,-149.1
0.012,-0.525,-0.883,0.032,0.001,0.005,-27.0,-254.25,-10.35,91.18,1.63,-149.1
0.014,-0.522,-0.883,0.035,0.002,0.003,-27.0,-254.25,-10.35,91.12,1.61,-149.11
0.01,-0.524,-0.881,0.033,0.0,0.001,-27.3,-254.55,-10.05,91.07,1.6,-149.12
0.01,-0.524,-0.881,0.04,0.004,0.003,-26.25,-255.3,-11.55,91.02,1.59,-149.12
0.017,-0.529,-0.883,0.039,0.002,-0.003,-25.65,-253.95,-10.2,90.97,1.57,-149.12
0.014,-0.529,-0.887,0.033,-0.002,-0.004,-27.15,-255.6,-10.65,90.91,1.55,-149.12
0.013,-0.529,-0.88,0.039,0.002,-0.003,-27.15,-255.6,-10.65,90.86,1.54,-149.12
0.013,-0.529,-0.88,0.035,-0.004,0.002,-25.95,-255.9,-9.45,90.81,1.52,-149.12
0.015,-0.53,-0.882,0.031,-0.002,0.006,-26.55,-254.25,-10.05,90.76,1.51,-149.12
0.009,-0.526,-0.88,0.037,0.003,0.004,-26.4,-255.6,-12.0,90.71,1.5,-149.12
0.009,-0.526,-0.88,0.037,-0.001,0.004,-27.3,-255.75,-11.85,90.65,1.49,-149.12
0.015,-0.53,-0.883,0.032,0.001,-0.006,-27.3,-255.75,-11.85,90.6,1.47,-149.12
0.019,-0.529,-0.883,0.038,0.002,-0.005,-27.3,-255.75,-11.85,90.55,1.46,-149.12
0.015,-0.524,-0.879,0.035,0.003,-0.002,-26.4,-255.15,-9.9,90.5,1.44,-149.12
0.015,-0.524,-0.879,0.03,-0.002,0.002,-26.7,-253.65,-8.7,90.45,1.42,-149.13
0.012,-0.527,-0.88,0.034,0.001,0.0,-28.05,-255.0,-10.05,90.4,1.41,-149.13
0.014,-0.528,-0.886,0.034,0.001,0.002,-27.75,-255.3,-10.8,90.35,1.4,-149.13
0.014,-0.528,-0.886,0.03,-0.0,-0.001,-27.75,-255.3,-10.8,90.3,1.39,-149.13
0.017,-0.529,-0.887,0.033,-0.001,-0.001,-26.7,-254.4,-9.9,90.25,1.37,-149.14
0.014,-0.529,-0.88,0.036,-0.002,-0.005,-26.7,-255.15,-9.9,90.2,1.35,-149.13
0.011,-0.526,-0.884,0.034,0.002,-0.004,-26.7,-255.15,-9.15,90.15,1.34,-149.14
0.011,-0.526,-0.884,0.038,0.0,-0.004,-26.7,-253.65,-11.7,90.1,1.33,-149.14
0.015,-0.529,-0.884,0.031,-0.0,0.003,-26.7,-253.65,-11.7,90.05,1.32,-149.14
0.014,-0.529,-0.884,0.033,0.004,0.005,-26.25,-255.0,-9.3,90.01,1.3,-149.14
0.014,-0.529,-0.884,0.031,-0.002,0.005,-27.15,-256.35,-10.65,89.96,1.29,-149.14
0.01,-0.527,-0.88,0.035,0.0,-0.003,-25.8,-255.0,-9.75,89.91,1.28,-149.14
0.013,-0.527,-0.878,0.033,0.007,-0.005,-26.7,-254.4,-9.9,89.87,1.27,-149.14
0.012,-0.528,-0.882,0.035,0.001,-0.013,-26.7,-254.4,-9.9,89.82,1.25,-149.14
0.012,-0.528,-0.882,0.038,-0.001,-0.009,-27.3,-255.3,-10.05,89.77,1.24,-149.14
0.011,-0.525,-0.883,0.035,0.001,-0.004,-26.25,-254.25,-9.75,89.73,1.23,-149.15
0.018,-0.529,-0.881,0.029,0.0,0.001,-27.15,-253.65,-10.2,89.68,1.21,-149.15
0.018,-0.529,-0.881,0.035,0.002,0.005,-27.45,-255.6,-11.4,89.63,1.2,-149.14
0.012,-0.528,-0.88,0.031,0.0,0.006,-27.45,-255.6,-11.4,89.59,1.19,-149.14
0.011,-0.526,-0.881,0.03,0.005,0.0,-27.15,-255.9,-10.65,89.54,1.18,-149.15
0.01,-0.526,-0.88,0.034,0.002,-0.002,-27.45,-255.15,-11.7,89.5,1.17,-149.15
0.01,-0.526,-0.88,0.037,-0.002,-0.003,-26.55,-256.95,-10.35,89.45,1.16,-149.15
0.012,-0.527,-0.882,0.036,0.002,-0.009,-27.3,-254.55,-10.8,89.41,1.15,-149.15
0.016,-0.528,-0.88,0.035,0.003,-0.005,-27.3,-254.55,-10.8,89.36,1.14,-149.15
0.016,-0.528,-0.88,0.031,-0.001,-0.003,-27.3,-254.55,-10.8,89.32,1.12,-149.15
0.013,-0.524,-0.883,0.033,0.002,0.001,-27.9,-253.95,-10.95,89.27,1.11,-149.15
0.01,-0.528,-0.883,0.036,0.002,0.001,-26.55,-255.0,-10.35,89.23,1.1,-149.15
0.015,-0.531,-0.882,0.039,-0.003,0.001,-25.65,-254.4,-10.65,89.19,1.09,-149.15
0.015,-0.531,-0.882,0.03,0.0,0.001,-25.65,-254.4,-10.65,89.15,1.07,-149.15
0.01,-0.53,-0.882,0.032,0.001,-0.005,-25.65,-254.4,-10.65,89.11,1.07,-149.15
0.018,-0.531,-0.883,0.031,-0.002,-0.005,-27.0,-256.95,-9.75,89.06,1.05,-149.14
0.018,-0.531,-0.883,0.034,0.001,0.002,-25.95,-253.95,-10.95,89.02,1.03,-149.14
0.014,-0.525,-0.883,0.032,-0.0,0.006,-25.8,-255.0,-10.05,88.98,1.02,-149.15
0.009,-0.528,-0.881,0.029,-0.003,0.003,-26.4,-255.9,-9.9,88.94,1.01,-149.15
0.009,-0.524,-0.887,0.032,-0.002,-0.002,-26.4,-255.9,-9.9,88.9,1.0,-149.15
0.009,-0.524,-0.887,0.035,0.003,-0.002,-25.8,-255.0,-10.05,88.86,1.0,-149.16
0.01,-0.528,-0.882,0.031,0.002,-0.009,-26.7,-255.9,-11.4,88.82,0.99,-149.16
0.013,-0.525,-0.885,0.039,-0.001,-0.008,-25.95,-255.15,-10.65,88.78,0.98,-149.16
0.013,-0.525,-0.885,0.034,-0.001,-0.004,-27.15,-255.15,-10.2,88.74,0.97,-149.17
0.01,-0.525,-0.881,0.029,0.0,0.001,-27.15,-255.15,-10.2,88.7,0.96,-149.17
0.016,-0.528,-0.883,0.035,0.001,0.003,-28.5,-255.0,-11.1,88.66,0.95,-149.17
0.008,-0.528,-0.879,0.032,0.002,0.005,-27.0,-254.55,-10.05,88.62,0.95,-149.17
0.008,-0.528,-0.879,0.038,-0.002,-0.001,-25.2,-255.6,-10.2,88.58,0.94,-149.17
0.01,-0.528,-0.884,0.034,-0.0,-0.001,-26.7,-255.15,-9.45,88.54,0.93,-149.17
0.012,-0.528,-0.88,0.04,0.002,-0.007,-26.7,-255.15,-9.45,88.5,0.92,-149.17
0.012,-0.528,-0.88,0.032,-0.004,-0.007,-27.3,-255.0,-11.55,88.46,0.91,-149.17
0.014,-0.53,-0.881,0.03,0.002,0.001,-26.4,-254.7,-10.65,88.43,0.9,-149.16
0.011,-0.528,-0.884,0.03,-0.003,0.003,-26.25,-255.3,-10.05,88.39,0.89,-149.16
0.007,-0.529,-0.881,0.037,-0.004,0.002,-26.4,-254.4,-10.2,88.35,0.89,-149.16
0.007,-0.529,-0.881,0.034,-0.007,-0.0,-26.4,-254.4,-10.2,88.31,0.88,-149.16
0.016,-0.527,-0.88,0.03,0.001,0.002,-26.55,-255.3,-11.1,88.28,0.87,-149.16
0.015,-0.526,-0.884,0.037,0.004,-0.005,-26.4,-253.65,-10.2,88.24,0.85,-149.16
0.015,-0.526,-0.884,0.037,-0.001,-0.004,-26.7,-255.15,-9.9,88.2,0.84,-149.17
0.011,-0.528,-0.883,0.036,0.003,-0.001,-27.0,-255.3,-9.0,88.17,0.83,-149.17
0.008,-0.532,-0.885,0.037,0.001,0.002,-27.0,-255.3,-9.0,88.13,0.83,-149.16
0.013,-0.524,-0.882,0.026,-0.001,0.006,-25.05,-255.0,-9.3,88.1,0.82,-149.17
0.013,-0.524,-0.882,0.029,-0.003,0.005,-25.5,-255.0,-10.05,88.06,0.8,-149.17
0.012,-0.527,-0.878,0.03,-0.004,0.0,-27.0,-256.95,-10.35,88.03,0.8,-149.17
0.01,-0.526,-0.879,0.032,-0.004,-0.006,-27.3,-254.55,-9.75,87.99,0.79,-149.17
0.01,-0.526,-0.879,0.027,0.003,-0.004,-26.4,-255.6,-9.15,87.95,0.78,-149.17
0.015,-0.527,-0.882,0.036,0.005,-0.002,-27.15,-253.95,-10.65,87.92,0.77,-149.17
0.014,-0.524,-0.884,0.036,-0.0,-0.003,-26.25,-253.35,-10.35,87.88,0.76,-149.17
0.01,-0.528,-0.879,0.03,-0.001,0.003,-26.4,-256.35,-10.2,87.85,0.75,-149.17
0.01,-0.528,-0.879,0.038,0.001,0.002,-26.4,-254.7,-9.9,87.82,0.75,-149.17
0.014,-0.531,-0.884,0.028,-0.001,0.006,-26.7,-255.15,-10.2,87.78,0.73,-149.17
0.009,-0.522,-0.878,0.036,-0.002,-0.0,-26.7,-254.7,-9.9,87.75,0.73,-149.17
0.009,-0.522,-0.878,0.035,0.002,-0.007,-27.9,-254.4,-9.9,87.71,0.73,-149.18
0.014,-0.525,-0.881,0.036,-0.001,-0.004,-27.45,-254.7,-9.9,87.68,0.72,-149.18
0.011,-0.524,-0.882,0.043,-0.0,-0.008,-27.45,-254.7,-9.9,87.64,0.71,-149.18
0.012,-0.528,-0.883,0.036,0.006,-0.002,-27.0,-255.3,-9.75,87.61,0.7,-149.18
0.012,-0.528,-0.883,0.037,-0.003,0.004,-27.0,-255.3,-9.75,87.57,0.69,-149.18
0.012,-0.522,-0.881,0.03,0.001,0.001,-27.0,-253.8,-10.35,87.54,0.68,-149.19
0.015,-0.529,-0.883,0.038,-0.001,0.002,-26.7,-254.7,-10.2,87.51,0.67,-149.19
0.015,-0.529,-0.883,0.031,-0.001,0.0,-27.75,-255.3,-10.05,87.47,0.66,-149.19
0.007,-0.526,-0.886,0.032,0.002,-0.011,-27.3,-254.55,-10.35,87.44,0.66,-149.19
0.015,-0.529,-0.881,0.039,0.003,-0.004,-27.3,-254.55,-10.35,87.41,0.65,-149.19
0.006,-0.528,-0.879,0.032,-0.002,-0.005,-25.65,-255.15,-10.95,87.38,0.65,-149.18
0.006,-0.528,-0.879,0.033,-0.005,0.002,-26.4,-253.65,-9.9,87.35,0.64,-149.18
0.011,-0.526,-0.877,0.026,-0.002,0.003,-27.45,-253.65,-9.9,87.31,0.64,-149.18
0.012,-0.529,-0.881,0.028,0.0,0.004,-25.95,-255.9,-10.2,87.28,0.63,-149.18
0.012,-0.529,-0.881,0.035,0.001,-0.001,-25.95,-255.9,-10.2,87.25,0.62,-149.18
0.009,-0.525,-0.879,0.033,0.007,-0.005,-27.15,-254.7,-9.9,87.22,0.61,-149.18
0.016,-0.529,-0.88,0.033,0.002,-0.004,-27.45,-254.7,-11.4,87.19,0.6,-149.17
0.01,-0.529,-0.889,0.031,-0.001,-0.002,-27.75,-256.05,-10.05,87.16,0.6,-149.18
0.01,-0.529,-0.889,0.034,0.007,0.001,-27.0,-254.25,-10.8,87.13,0.59,-149.18
0.014,-0.531,-0.884,0.035,-0.002,-0.002,-27.15,-253.95,-11.4,87.1,0.58,-149.18
0.013,-0.526,-0.878,0.03,0.001,-0.001,-27.15,-255.9,-10.95,87.07,0.57,-149.18
0.013,-0.526,-0.878,0.03,0.003,-0.003,-26.25,-254.55,-9.0,87.04,0.56,-149.18
0.007,-0.523,-0.883,0.037,0.0,-0.001,-26.25,-255.0,-10.8,87.01,0.56,-149.18
0.012,-0.528,-0.88,0.034,-0.002,-0.003,-24.45,-253.95,-11.4,86.98,0.55,-149.18
0.017,-0.527,-0.885,0.033,0.003,-0.002,-25.8,-254.25,-9.75,86.96,0.53,-149.18
0.017,-0.527,-0.885,0.036,0.002,-0.001,-26.7,-255.15,-11.7,86.93,0.52,-149.18
0.015,-0.527,-0.883,0.04,-0.0,-0.002,-25.8,-253.8,-11.55,86.9,0.51,-149.18
0.012,-0.527,-0.885,0.037,-0.006,-0.001,-27.75,-254.25,-9.3,86.87,0.5,-149.19
0.012,-0.527,-0.885,0.034,0.006,0.008,-25.95,-255.6,-9.9,86.84,0.49,-149.19
0.013,-0.523,-0.883,0.031,-0.004,-0.002,-25.95,-253.95,-10.95,86.81,0.48,-149.19
0.013,-0.529,-0.88,0.041,-0.002,0.002,-25.95,-253.95,-10.95,86.79,0.47,-149.19
0.012,-0.529,-0.883,0.035,-0.004,0.0,-26.25,-254.55,-10.8,86.76,0.47,-149.19
0.012,-0.529,-0.883,0.032,-0.001,-0.002,-26.4,-255.15,-10.95,86.73,0.46,-149.19
0.016,-0.528,-0.882,0.033,0.001,-0.004,-26.55,-254.25,-10.05,86.71,0.45,-149.19
0.015,-0.523,-0.884,0.03,-0.0,0.006,-25.65,-254.4,-10.2,86.68,0.43,-149.19
0.015,-0.523,-0.884,0.035,-0.003,-0.004,-25.65,-254.4,-10.2,86.65,0.42,-149.2
0.01,-0.527,-0.88,0.035,0.004,0.001,-26.4,-254.7,-9.15,86.63,0.42,-149.2
0.012,-0.525,-0.882,0.036,0.002,0.002,-25.65,-254.7,-9.9,86.6,0.41,-149.2
0.012,-0.524,-0.882,0.033,0.0,-0.003,-26.55,-255.3,-11.1,86.58,0.4,-149.2
0.012,-0.524,-0.882,0.028,-0.0,-0.004,-27.0,-256.05,-9.75,86.55,0.4,-149.2
0.009,-0.523,-0.883,0.032,-0.001,-0.005,-27.0,-256.05,-9.75,86.52,0.39,-149.21
0.011,-0.53,-0.887,0.037,-0.001,-0.006,-27.15,-255.15,-10.95,86.49,0.39,-149.21
0.011,-0.53,-0.887,0.031,0.002,0.001,-27.3,-255.3,-9.75,86.47,0.38,-149.21
0.011,-0.529,-0.883,0.034,-0.0,0.003,-25.65,-255.6,-10.65,86.44,0.38,-149.21
0.011,-0.522,-0.882,0.035,0.002,0.003,-25.95,-253.95,-9.45,86.42,0.37,-149.21
0.013,-0.526,-0.88,0.028,-0.002,0.003,-24.75,-255.75,-10.8,86.4,0.36,-149.21
0.013,-0.526,-0.88,0.037,-0.001,0.0,-26.55,-254.25,-9.75,86.37,0.35,-149.21
0.011,-0.53,-0.879,0.039,-0.001,-0.011,-26.55,-255.3,-12.3,86.35,0.35,-149.21
0.009,-0.524,-0.878,0.036,-0.001,-0.003,-25.5,-253.8,-10.8,86.32,0.34,-149.21
0.009,-0.524,-0.878,0.038,0.001,0.0,-26.55,-256.05,-10.35,86.3,0.34,-149.21
0.014,-0.523,-0.884,0.031,0.002,0.002,-25.95,-254.7,-9.9,86.27,0.33,-149.21
0.015,-0.532,-0.878,0.031,-0.003,0.003,-26.55,-254.25,-11.1,86.25,0.32,-149.21
0.011,-0.525,-0.882,0.037,0.002,0.001,-26.25,-255.3,-11.85,86.23,0.32,-149.21
0.011,-0.525,-0.882,0.035,-0.0,0.003,-26.55,-255.0,-11.55,86.2,0.31,-149.21
0.013,-0.529,-0.884,0.029,0.002,-0.008,-26.4,-254.7,-10.95,86.18,0.3,-149.21
0.011,-0.526,-0.879,0.038,-0.002,-0.005,-25.2,-255.6,-9.45,86.16,0.3,-149.2
0.011,-0.526,-0.879,0.03,-0.003,-0.003,-25.2,-255.6,-9.45,86.14,0.29,-149.2
0.009,-0.528,-0.883,0.031,-0.003,-0.001,-28.5,-255.75,-9.75,86.11,0.29,-149.2
0.013,-0.528,-0.88,0.038,-0.001,-0.003,-25.2,-255.15,-9.45,86.09,0.28,-149.2
0.008,-0.526,-0.878,0.034,-0.004,0.002,-26.55,-255.75,-10.05,86.06,0.28,-149.2
0.008,-0.526,-0.878,0.034,0.003,0.003,-27.15,-254.4,-10.2,86.04,0.28,-149.2
0.01,-0.526,-0.883,0.029,0.0,-0.005,-27.15,-254.4,-10.2,86.01,0.28,-149.2
0.018,-0.53,-0.882,0.036,-0.005,-0.005,-26.55,-255.0,-10.35,85.99,0.26,-149.19
0.018,-0.53,-0.882,0.034,0.002,-0.002,-27.15,-255.15,-11.7,85.97,0.25,-149.19
0.014,-0.534,-0.879,0.035,0.006,-0.0,-26.7,-254.4,-10.2,85.94,0.24,-149.18
0.015,-0.525,-0.887,0.037,-0.002,0.002,-25.8,-255.75,-10.35,85.92,0.23,-149.19
0.01,-0.531,-0.882,0.032,0.001,0.002,-25.8,-255.75,-10.35,85.9,0.23,-149.18
0.01,-0.531,-0.882,0.029,0.0,0.001,-26.55,-255.3,-10.35,85.88,0.23,-149.18
0.016,-0.526,-0.877,0.033,-0.0,-0.006,-27.0,-255.0,-9.3,85.86,0.21,-149.18
0.008,-0.523,-0.884,0.032,0.001,-0.003,-27.45,-254.7,-11.4,85.83,0.22,-149.18
0.008,-0.523,-0.884,0.036,-0.001,-0.006,-25.8,-255.3,-10.8,85.81,0.21,-149.19
0.007,-0.527,-0.883,0.039,0.0,-0.004,-27.3,-254.55,-10.05,85.79,0.22,-149.19
0.012,-0.522,-0.88,0.033,0.001,-0.002,-25.2,-254.4,-9.9,85.77,0.21,-149.19
0.018,-0.529,-0.883,0.034,0.002,-0.004,-26.55,-255.3,-9.3,85.75,0.19,-149.19
0.018,-0.529,-0.883,0.032,0.0,-0.001,-27.15,-255.15,-11.4,85.73,0.18,-149.19
0.016,-0.523,-0.88,0.03,-0.001,0.001,-26.4,-255.15,-10.2,85.71,0.17,-149.19
0.014,-0.525,-0.878,0.031,0.0,-0.001,-26.4,-255.6,-11.7,85.69,0.16,-149.19
0.015,-0.523,-0.881,0.032,0.004,-0.001,-25.95,-255.9,-10.95,85.67,0.15,-149.2
0.015,-0.523,-0.881,0.034,0.004,-0.007,-25.65,-254.7,-11.4,85.65,0.14,-149.2
0.01,-0.527,-0.881,0.032,-0.001,0.003,-26.55,-255.3,-10.65,85.63,0.14,-149.2
0.016,-0.523,-0.882,0.035,-0.001,0.002,-27.15,-253.65,-10.65,85.6,0.13,-149.2
0.016,-0.523,-0.882,0.033,0.001,0.001,-27.45,-255.15,-11.4,85.58,0.12,-149.21
0.011,-0.53,-0.882,0.035,-0.002,-0.005,-26.4,-254.4,-10.2,85.56,0.12,-149.2
0.01,-0.53,-0.88,0.034,-0.0,-0.002,-25.95,-255.9,-11.7,85.54,0.12,-149.2
0.019,-0.525,-0.881,0.031,-0.002,0.001,-26.25,-256.05,-11.55,85.52,0.1,-149.2
0.019,-0.525,-0.881,0.037,0.002,0.002,-26.25,-255.0,-10.35,85.5,0.09,-149.2
0.013,-0.526,-0.883,0.036,0.002,0.003,-26.25,-255.0,-10.35,85.49,0.08,-149.2
0.006,-0.527,-0.884,0.03,-0.001,-0.003,-26.25,-255.0,-10.35,85.47,0.09,-149.2
0.006,-0.527,-0.884,0.033,-0.003,-0.004,-27.3,-255.3,-10.35,85.45,0.09,-149.2
0.017,-0.525,-0.884,0.038,-0.001,-0.003,-27.75,-253.8,-9.75,85.42,0.08,-149.21
0.014,-0.527,-0.884,0.035,-0.002,-0.003,-25.8,-253.8,-10.8,85.41,0.07,-149.21
0.009,-0.529,-0.882,0.033,0.006,-0.005,-26.25,-253.8,-10.35,85.39,0.07,-149.2
0.009,-0.529,-0.882,0.036,0.0,-0.001,-26.25,-253.8,-10.35,85.37,0.07,-149.2
0.011,-0.524,-0.884,0.035,-0.001,-0.001,-26.7,-255.15,-10.65,85.35,0.07,-149.21
0.009,-0.524,-0.883,0.033,0.002,0.003,-27.3,-254.25,-10.35,85.33,0.07,-149.21
0.009,-0.524,-0.883,0.035,0.002,-0.003,-26.55,-255.3,-10.35,85.31,0.07,-149.21
0.012,-0.53,-0.882,0.032,0.002,-0.0,-25.95,-253.95,-9.45,85.29,0.06,-149.21
0.012,-0.526,-0.883,0.035,0.003,-0.002,-25.95,-253.95,-9.45,85.27,0.06,-149.21
0.015,-0.526,-0.877,0.039,0.001,-0.004,-26.4,-254.7,-10.2,85.26,0.05,-149.21
0.015,-0.526,-0.877,0.038,0.001,-0.004,-25.8,-255.0,-10.8,85.24,0.04,-149.2
0.01,-0.531,-0.883,0.029,0.0,-0.002,-26.55,-255.0,-9.3,85.22,0.04,-149.2
0.012,-0.527,-0.882,0.033,-0.002,0.001,-26.7,-255.9,-10.2,85.2,0.03,-149.2
0.012,-0.527,-0.882,0.036,-0.002,0.001,-26.7,-255.9,-10.2,85.18,0.03,-149.2
0.013,-0.528,-0.877,0.034,-0.002,0.0,-26.4,-255.15,-10.65,85.17,0.02,-149.19
0.008,-0.523,-0.879,0.032,0.001,-0.008,-26.7,-253.65,-10.2,85.15,0.03,-149.2
0.015,-0.525,-0.883,0.035,-0.001,-0.009,-27.15,-255.15,-9.9,85.13,0.02,-149.2
0.015,-0.525,-0.883,0.034,-0.001,-0.002,-26.7,-253.2,-9.45,85.11,0.01,-149.2
0.012,-0.526,-0.881,0.033,-0.0,0.001,-26.7,-253.2,-9.45,85.09,0.01,-149.2
0.012,-0.524,-0.884,0.036,-0.003,-0.0,-26.4,-255.9,-10.65,85.08,0.0,-149.2
0.012,-0.524,-0.884,0.034,0.0,0.002,-26.25,-255.0,-11.55,85.06,-0.0,-149.21
0.011,-0.527,-0.886,0.035,0.001,0.001,-26.4,-255.15,-10.95,85.05,-0.0,-149.21
0.01,-0.526,-0.883,0.038,0.0,-0.004,-25.05,-253.8,-10.05,85.03,-0.01,-149.21
0.013,-0.527,-0.884,0.037,-0.006,-0.003,-25.05,-253.8,-10.05,85.02,-0.01,-149.21
0.013,-0.527,-0.884,0.033,0.002,0.002,-25.05,-253.8,-10.05,85.0,-0.02,-149.21
0.013,-0.527,-0.877,0.037,-0.007,-0.001,-25.65,-255.15,-9.9,84.99,-0.03,-149.21
0.012,-0.526,-0.88,0.03,0.001,0.0,-26.7,-255.15,-10.2,84.97,-0.03,-149.2
0.012,-0.526,-0.88,0.031,0.003,-0.002,-26.55,-255.0,-9.75,84.96,-0.04,-149.2
0.012,-0.529,-0.88,0.034,-0.002,-0.002,-25.8,-254.55,-9.75,84.94,-0.04,-149.2
0.01,-0.522,-0.878,0.033,0.0,-0.002,-25.8,-254.55,-9.75,84.93,-0.04,-149.2
0.012,-0.526,-0.882,0.035,-0.001,-0.005,-26.55,-255.0,-10.05,84.91,-0.05,-149.2
0.012,-0.526,-0.882,0.037,0.005,-0.001,-27.3,-253.8,-9.75,84.89,-0.05,-149.2
0.004,-0.522,-0.88,0.035,-0.0,-0.001,-25.2,-255.15,-10.65,84.88,-0.04,-149.21
0.012,-0.526,-0.88,0.03,-0.006,-0.002,-25.95,-253.95,-10.2,84.86,-0.05,-149.21
0.012,-0.526,-0.88,0.037,0.001,0.001,-25.95,-253.95,-10.2,84.85,-0.05,-149.21
0.012,-0.525,-0.881,0.033,-0.0,0.003,-26.7,-255.9,-9.9,84.83,-0.06,-149.21
0.008,-0.525,-0.879,0.035,0.002,-0.004,-26.4,-253.95,-10.65,84.82,-0.06,-149.21
0.012,-0.529,-0.885,0.033,-0.006,0.002,-26.55,-253.8,-10.35,84.8,-0.06,-149.2
0.012,-0.529,-0.885,0.038,0.002,-0.004,-27.45,-253.65,-9.9,84.78,-0.06,-149.2
0.009,-0.53,-0.882,0.038,-0.002,0.002,-27.45,-253.65,-9.9,84.77,-0.06,-149.2
0.019,-0.529,-0.881,0.036,0.002,-0.0,-27.45,-253.95,-9.15,84.75,-0.07,-149.2
0.019,-0.529,-0.881,0.033,-0.001,0.003,-25.5,-255.0,-10.8,84.74,-0.09,-149.19
0.014,-0.527,-0.878,0.033,-0.003,0.0,-26.55,-255.3,-10.35,84.72,-0.09,-149.19
0.007,-0.529,-0.886,0.033,0.005,0.002,-25.65,-253.95,-10.65,84.71,-0.09,-149.19
0.011,-0.529,-0.882,0.035,0.004,0.0,-25.65,-253.95,-10.65,84.7,-0.09,-149.18
0.011,-0.529,-0.882,0.035,0.003,-0.005,-27.15,-255.15,-10.2,84.68,-0.1,-149.18
0.008,-0.526,-0.882,0.035,0.001,0.002,-25.2,-254.7,-10.65,84.67,-0.1,-149.18
0.012,-0.529,-0.884,0.033,0.004,-0.003,-26.7,-255.15,-9.15,84.65,-0.1,-149.18
0.012,-0.529,-0.884,0.037,-0.002,-0.005,-26.7,-254.7,-10.65,84.64,-0.11,-149.18
0.008,-0.528,-0.876,0.039,0.002,-0.005,-26.7,-254.7,-10.65,84.62,-0.1,-149.17
0.014,-0.524,-0.88,0.03,0.002,0.005,-26.7,-254.7,-10.65,84.61,-0.11,-149.18
0.009,-0.523,-0.88,0.037,-0.001,-0.001,-24.9,-255.6,-9.45,84.6,-0.11,-149.18
0.009,-0.523,-0.88,0.032,0.002,-0.004,-26.25,-254.25,-10.05,84.59,-0.11,-149.18
0.007,-0.523,-0.883,0.033,0.001,0.004,-26.25,-256.05,-10.35,84.57,-0.11,-149.19
0.013,-0.526,-0.88,0.031,0.001,-0.002,-25.8,-256.05,-11.1,84.56,-0.12,-149.19
0.013,-0.526,-0.88,0.033,-0.003,0.0,-25.8,-256.05,-11.1,84.55,-0.12,-149.19
0.01,-0.528,-0.878,0.037,-0.002,-0.004,-25.65,-255.6,-10.35,84.54,-0.13,-149.18
0.011,-0.527,-0.883,0.035,-0.004,-0.005,-26.25,-255.75,-10.35,84.52,-0.13,-149.18
0.012,-0.522,-0.883,0.035,0.003,0.001,-26.7,-255.6,-11.4,84.51,-0.13,-149.19
0.012,-0.522,-0.883,0.034,0.002,-0.001,-26.25,-254.55,-9.75,84.5,-0.14,-149.19
0.013,-0.528,-0.882,0.031,0.005,0.004,-26.25,-254.55,-9.75,84.49,-0.14,-149.19
0.014,-0.528,-0.881,0.029,-0.001,-0.005,-26.25,-255.0,-9.75,84.47,-0.15,-149.19
0.014,-0.528,-0.881,0.035,0.003,-0.002,-25.65,-253.2,-10.95,84.46,-0.15,-149.19
0.01,-0.524,-0.884,0.033,0.001,0.001,-27.15,-253.95,-9.9,84.45,-0.15,-149.19
0.015,-0.531,-0.881,0.031,0.002,-0.0,-26.25,-256.05,-10.35,84.43,-0.16,-149.19
0.013,-0.529,-0.883,0.031,0.002,0.003,-26.25,-256.05,-10.35,84.42,-0.17,-149.19
0.013,-0.529,-0.883,0.034,-0.001,0.001,-26.55,-255.75,-11.1,84.41,-0.17,-149.18
0.014,-0.524,-0.877,0.029,-0.002,-0.001,-26.7,-256.35,-9.15,84.4,-0.18,-149.18
0.018,-0.529,-0.876,0.035,-0.0,-0.003,-26.4,-254.7,-10.2,84.38,-0.19,-149.18
0.018,-0.529,-0.876,0.035,-0.002,-0.0,-25.8,-255.0,-11.55,84.37,-0.2,-149.17
0.016,-0.524,-0.883,0.037,0.0,0.0,-25.8,-255.0,-11.55,84.36,-0.21,-149.17
0.013,-0.524,-0.882,0.037,-0.001,-0.001,-26.7,-255.15,-11.4,84.35,-0.21,-149.18
0.014,-0.527,-0.878,0.038,-0.001,-0.003,-25.65,-254.4,-10.2,84.34,-0.22,-149.17
0.014,-0.527,-0.878,0.031,-0.002,0.0,-26.7,-255.6,-11.7,84.33,-0.22,-149.17
0.014,-0.524,-0.882,0.032,-0.001,-0.003,-25.65,-255.15,-10.95,84.32,-0.23,-149.17
0.019,-0.526,-0.877,0.035,0.0,-0.006,-25.65,-255.15,-10.95,84.3,-0.24,-149.17
0.019,-0.526,-0.877,0.027,0.001,-0.004,-25.65,-255.15,-10.95,84.29,-0.25,-149.17
0.012,-0.53,-0.881,0.032,0.001,-0.005,-25.95,-255.9,-10.65,84.28,-0.26,-149.17
0.014,-0.53,-0.88,0.034,0.003,-0.003,-26.25,-255.75,-9.75,84.27,-0.26,-149.16
0.009,-0.525,-0.884,0.029,0.002,-0.002,-26.55,-255.0,-11.1,84.26,-0.26,-149.17
0.009,-0.525,-0.884,0.03,0.001,-0.002,-26.55,-255.0,-11.1,84.25,-0.25,-149.17
0.011,-0.521,-0.88,0.034,-0.002,-0.002,-26.55,-255.0,-11.1,84.24,-0.26,-149.17
0.012,-0.528,-0.881,0.036,0.001,0.007,-25.5,-255.0,-9.75,84.23,-0.26,-149.17
0.006,-0.525,-0.881,0.036,-0.003,-0.001,-25.65,-253.65,-10.95,84.22,-0.25,-149.17
0.006,-0.525,-0.881,0.037,0.001,-0.002,-26.7,-255.15,-10.95,84.2,-0.25,-149.17
0.013,-0.527,-0.88,0.031,-0.003,-0.003,-27.15,-255.15,-9.9,84.19,-0.25,-149.17
0.01,-0.528,-0.883,0.032,0.0,-0.003,-27.15,-255.15,-9.9,84.18,-0.25,-149.17
0.01,-0.528,-0.883,0.033,0.001,-0.003,-27.9,-254.7,-10.65,84.16,-0.25,-149.17
0.008,-0.53,-0.883,0.035,-0.001,-0.002,-25.5,-256.5,-9.75,84.16,-0.25,-149.17
0.012,-0.524,-0.89,0.037,0.003,-0.001,-25.8,-255.0,-9.75,84.15,-0.25,-149.18
0.012,-0.526,-0.882,0.037,0.002,0.001,-27.45,-255.15,-11.4,84.13,-0.25,-149.18
0.012,-0.526,-0.882,0.033,0.002,0.003,-27.45,-255.15,-11.4,84.12,-0.25,-149.18
0.007,-0.527,-0.881,0.035,0.001,0.003,-25.65,-255.15,-10.2,84.11,-0.25,-149.18
0.016,-0.524,-0.882,0.031,0.0,0.006,-25.2,-254.7,-10.2,84.1,-0.26,-149.18
0.016,-0.524,-0.882,0.037,-0.001,0.0,-25.95,-255.15,-11.4,84.09,-0.27,-149.19
0.01,-0.524,-0.879,0.038,0.002,0.002,-25.95,-252.75,-10.65,84.08,-0.27,-149.19
0.012,-0.529,-0.878,0.032,0.001,-0.003,-25.95,-252.75,-10.65,84.07,-0.27,-149.18
0.019,-0.532,-0.879,0.031,0.003,-0.003,-27.0,-253.8,-10.8,84.06,-0.28,-149.17
0.019,-0.532,-0.879,0.034,0.002,-0.001,-26.25,-255.0,-10.05,84.05,-0.29,-149.17
0.01,-0.526,-0.883,0.036,-0.002,-0.001,-26.55,-256.05,-11.1,84.04,-0.29,-149.17
0.019,-0.527,-0.888,0.035,-0.002,0.0,-26.25,-255.3,-10.35,84.03,-0.3,-149.17
0.019,-0.527,-0.888,0.037,0.003,-0.0,-26.25,-255.3,-10.35,84.02,-0.31,-149.17
0.012,-0.529,-0.885,0.036,0.003,-0.002,-26.25,-253.8,-9.75,84.01,-0.31,-149.17
0.016,-0.521,-0.888,0.032,-0.001,-0.007,-25.8,-255.75,-10.35,84.0,-0.32,-149.18
0.009,-0.528,-0.881,0.034,0.004,-0.003,-26.25,-254.55,-11.1,83.99,-0.32,-149.18
0.009,-0.528,-0.881,0.035,0.003,-0.002,-27.15,-253.95,-11.4,83.98,-0.32,-149.18
0.011,-0.526,-0.88,0.028,0.002,-0.001,-27.15,-253.95,-11.4,83.97,-0.31,-149.18
0.017,-0.527,-0.881,0.035,-0.001,0.002,-27.15,-253.95,-11.4,83.96,-0.32,-149.18
0.017,-0.527,-0.881,0.032,-0.002,-0.005,-27.75,-255.3,-11.1,83.95,-0.33,-149.18
0.007,-0.526,-0.885,0.036,-0.004,-0.002,-25.65,-253.95,-9.45,83.94,-0.32,-149.18
0.011,-0.527,-0.886,0.035,-0.002,-0.004,-25.2,-254.7,-10.95,83.93,-0.33,-149.18
0.016,-0.53,-0.883,0.039,0.002,0.0,-27.75,-254.25,-11.1,83.92,-0.33,-149.18
0.016,-0.53,-0.883,0.034,-0.002,-0.003,-27.75,-254.25,-11.1,83.91,-0.34,-149.18
0.016,-0.532,-0.88,0.031,-0.001,0.001,-27.45,-253.95,-10.65,83.89,-0.34,-149.17
0.014,-0.527,-0.877,0.032,0.001,-0.001,-25.65,-254.4,-10.2,83.89,-0.35,-149.17
0.014,-0.527,-0.877,0.037,-0.001,0.001,-25.65,-253.95,-10.65,83.88,-0.35,-149.16
0.01,-0.527,-0.884,0.036,0.0,0.004,-26.7,-256.35,-10.95,83.87,-0.35,-149.16
0.01,-0.528,-0.886,0.035,0.004,0.002,-26.7,-256.35,-10.95,83.86,-0.35,-149.17
0.011,-0.523,-0.883,0.037,0.002,-0.002,-25.95,-253.95,-10.95,83.85,-0.35,-149.17
0.011,-0.523,-0.883,0.032,0.001,0.001,-25.95,-255.9,-11.4,83.84,-0.35,-149.18
0.015,-0.525,-0.881,0.041,0.001,-0.003,-25.95,-254.7,-9.9,83.84,-0.36,-149.18
0.012,-0.528,-0.883,0.037,-0.001,0.005,-27.45,-255.15,-10.95,83.82,-0.35,-149.18
0.012,-0.528,-0.883,0.033,0.0,0.001,-27.45,-255.15,-10.95,83.81,-0.35,-149.17
0.013,-0.525,-0.883,0.031,-0.003,0.001,-25.95,-254.4,-9.9,83.81,-0.36,-149.18
0.011,-0.527,-0.882,0.034,-0.004,0.001,-26.25,-254.55,-12.3,83.8,-0.36,-149.18
0.013,-0.528,-0.883,0.035,0.001,-0.001,-25.95,-255.9,-10.95,83.79,-0.36,-149.18
0.013,-0.528,-0.883,0.04,-0.0,-0.004,-26.55,-256.5,-10.8,83.78,-0.36,-149.17
0.014,-0.527,-0.88,0.029,0.0,-0.003,-26.55,-256.5,-10.8,83.77,-0.37,-149.17
0.008,-0.525,-0.881,0.034,0.004,0.0,-25.95,-255.6,-9.9,83.76,-0.36,-149.17
0.008,-0.525,-0.881,0.035,-0.002,-0.001,-27.0,-255.0,-9.75,83.76,-0.36,-149.17
0.008,-0.527,-0.883,0.028,-0.004,0.002,-25.65,-253.95,-10.65,83.75,-0.36,-149.18
0.01,-0.527,-0.883,0.037,0.003,0.002,-26.25,-256.05,-11.1,83.74,-0.36,-149.18
0.013,-0.528,-0.886,0.038,0.005,-0.004,-26.25,-256.05,-11.1,83.73,-0.36,-149.18
0.013,-0.528,-0.886,0.037,-0.001,-0.003,-25.65,-253.95,-10.95,83.73,-0.36,-149.18
0.012,-0.528,-0.885,0.034,-0.001,-0.0,-25.65,-255.6,-11.4,83.72,-0.37,-149.18
0.011,-0.527,-0.883,0.035,0.003,-0.002,-25.95,-254.4,-10.65,83.71,-0.37,-149.18
0.011,-0.527,-0.883,0.032,-0.003,0.0,-25.95,-254.7,-9.9,83.71,-0.37,-149.18
0.01,-0.528,-0.886,0.033,-0.003,-0.002,-25.95,-254.7,-9.15,83.7,-0.37,-149.18
0.012,-0.524,-0.882,0.032,0.001,-0.003,-25.65,-254.7,-10.65,83.69,-0.37,-149.18
0.016,-0.529,-0.879,0.027,-0.001,-0.001,-26.7,-255.9,-10.35,83.68,-0.38,-149.18
0.016,-0.529,-0.879,0.033,0.0,-0.004,-26.7,-254.4,-10.95,83.68,-0.38,-149.17
0.011,-0.523,-0.883,0.033,-0.001,-0.003,-27.0,-255.3,-9.75,83.67,-0.38,-149.18
0.013,-0.525,-0.883,0.031,0.005,-0.001,-25.65,-253.95,-9.9,83.66,-0.39,-149.18
0.013,-0.525,-0.883,0.033,-0.002,0.003,-26.25,-255.3,-10.8,83.65,-0.39,-149.18
0.008,-0.529,-0.884,0.037,-0.001,-0.001,-25.8,-253.8,-10.35,83.65,-0.39,-149.18
0.011,-0.526,-0.881,0.032,-0.003,-0.002,-27.15,-255.15,-11.7,83.64,-0.39,-149.18
0.013,-0.528,-0.883,0.035,0.006,0.002,-26.7,-253.95,-10.95,83.63,-0.39,-149.18
0.013,-0.528,-0.883,0.037,-0.001,-0.003,-26.25,-254.25,-11.1,83.62,-0.39,-149.18
0.01,-0.526,-0.882,0.034,-0.003,-0.0,-24.9,-254.7,-10.95,83.62,-0.39,-149.18
0.012,-0.525,-0.881,0.029,-0.001,0.001,-25.95,-255.15,-10.95,83.61,-0.4,-149.18
0.012,-0.525,-0.881,0.033,0.005,-0.004,-26.25,-255.3,-10.05,83.6,-0.4,-149.18
0.013,-0.524,-0.881,0.033,-0.002,0.0,-25.8,-254.25,-10.05,83.6,-0.4,-149.18
0.009,-0.529,-0.884,0.031,0.002,-0.004,-24.9,-254.7,-9.9,83.59,-0.4,-149.18
0.013,-0.522,-0.88,0.036,-0.001,-0.002,-24.9,-254.7,-9.9,83.59,-0.41,-149.18
0.013,-0.522,-0.88,0.037,0.001,0.0,-26.4,-255.6,-9.9,83.58,-0.41,-149.19
0.014,-0.531,-0.888,0.027,0.0,0.004,-25.95,-254.4,-10.2,83.58,-0.41,-149.19
0.018,-0.523,-0.882,0.033,0.0,-0.001,-27.9,-253.95,-8.7,83.57,-0.42,-149.19
0.018,-0.523,-0.882,0.035,-0.002,-0.001,-26.55,-253.8,-10.8,83.56,-0.43,-149.19
0.006,-0.524,-0.878,0.028,-0.007,-0.0,-26.55,-253.8,-10.8,83.55,-0.42,-149.19
0.008,-0.529,-0.88,0.035,-0.0,-0.007,-27.3,-255.3,-10.35,83.54,-0.41,-149.19
0.017,-0.528,-0.879,0.034,-0.001,0.001,-25.8,-255.3,-9.75,83.54,-0.42,-149.18
0.017,-0.528,-0.879,0.034,0.008,-0.006,-25.8,-255.0,-11.1,83.53,-0.43,-149.18
0.011,-0.531,-0.886,0.034,-0.002,0.0,-27.0,-255.0,-11.1,83.52,-0.43,-149.18
0.012,-0.524,-0.879,0.035,-0.002,0.0,-27.0,-255.0,-11.1,83.51,-0.43,-149.18
0.012,-0.524,-0.879,0.033,-0.0,-0.003,-26.25,-255.0,-9.75,83.51,-0.43,-149.18
0.011,-0.528,-0.884,0.031,-0.003,-0.002,-25.05,-254.55,-10.35,83.5,-0.43,-149.18
0.013,-0.527,-0.879,0.035,-0.001,0.003,-26.4,-255.9,-10.95,83.5,-0.44,-149.18
0.01,-0.527,-0.883,0.031,-0.001,-0.006,-25.95,-255.6,-10.2,83.49,-0.44,-149.18
0.01,-0.527,-0.883,0.038,0.001,-0.002,-27.45,-255.6,-10.95,83.48,-0.43,-149.18
0.014,-0.529,-0.885,0.032,-0.0,-0.001,-26.55,-255.3,-10.35,83.48,-0.44,-149.18
0.01,-0.529,-0.883,0.028,-0.001,-0.001,-27.3,-255.0,-11.1,83.47,-0.43,-149.17
0.01,-0.525,-0.884,0.034,0.001,-0.001,-27.0,-255.0,-10.05,83.46,-0.43,-149.18
0.01,-0.525,-0.884,0.031,0.001,-0.003,-25.95,-253.95,-10.2,83.46,-0.43,-149.18
0.012,-0.526,-0.879,0.033,0.001,-0.002,-26.7,-256.35,-11.7,83.45,-0.43,-149.18
0.013,-0.529,-0.881,0.033,0.002,-0.003,-25.2,-255.15,-10.65,83.45,-0.44,-149.18
0.013,-0.529,-0.881,0.037,-0.005,-0.001,-25.05,-255.3,-10.35,83.44,-0.44,-149.17
0.011,-0.527,-0.881,0.034,-0.001,0.0,-27.45,-255.6,-11.4,83.43,-0.44,-149.17
0.006,-0.528,-0.884,0.034,0.002,0.001,-26.25,-254.55,-10.05,83.43,-0.43,-149.17
0.012,-0.528,-0.883,0.035,-0.0,-0.003,-27.9,-253.95,-11.4,83.42,-0.43,-149.17
0.012,-0.528,-0.883,0.036,-0.001,0.003,-27.9,-253.95,-11.4,83.41,-0.43,-149.17
0.016,-0.529,-0.886,0.031,-0.003,0.001,-26.4,-252.75,-10.65,83.4,-0.44,-149.17
0.01,-0.529,-0.881,0.037,0.001,-0.003,-25.8,-254.55,-9.0,83.4,-0.44,-149.17
0.01,-0.529,-0.881,0.029,0.0,-0.008,-25.8,-253.8,-11.1,83.39,-0.44,-149.16
0.012,-0.532,-0.878,0.032,-0.002,-0.004,-25.95,-255.6,-11.4,83.39,-0.44,-149.16
0.014,-0.526,-0.881,0.035,0.003,-0.003,-25.95,-255.6,-11.4,83.38,-0.45,-149.16
0.01,-0.525,-0.884,0.034,-0.0,-0.001,-25.65,-253.95,-10.2,83.38,-0.45,-149.16
0.01,-0.525,-0.884,0.03,0.001,0.001,-27.45,-253.95,-11.4,83.37,-0.44,-149.16
0.012,-0.528,-0.878,0.033,0.002,0.004,-26.7,-254.4,-10.2,83.36,-0.44,-149.16
0.01,-0.526,-0.882,0.037,-0.001,0.003,-26.55,-255.3,-11.1,83.36,-0.44,-149.16
0.01,-0.526,-0.882,0.033,0.001,-0.003,-26.55,-255.3,-11.1,83.35,-0.44,-149.16
0.007,-0.528,-0.881,0.039,0.001,-0.003,-27.45,-255.15,-9.45,83.34,-0.44,-149.16
0.014,-0.526,-0.883,0.033,-0.002,-0.005,-25.95,-255.6,-10.65,83.34,-0.44,-149.16
0.011,-0.526,-0.881,0.032,0.007,-0.0,-26.4,-256.35,-9.15,83.34,-0.44,-149.16
0.011,-0.526,-0.881,0.037,0.002,-0.001,-25.65,-255.6,-10.65,83.33,-0.44,-149.16
0.018,-0.532,-0.882,0.039,0.002,-0.003,-25.05,-254.55,-11.85,83.33,-0.46,-149.15
0.014,-0.525,-0.884,0.032,-0.005,-0.005,-27.75,-255.75,-11.85,83.32,-0.46,-149.16
0.014,-0.525,-0.884,0.037,-0.004,0.001,-25.2,-255.15,-10.95,83.32,-0.46,-149.16
0.012,-0.525,-0.883,0.034,0.001,-0.004,-24.3,-254.55,-11.1,83.32,-0.47,-149.16
0.013,-0.524,-0.884,0.033,0.004,-0.002,-25.2,-253.95,-10.2,83.31,-0.47,-149.17
0.013,-0.528,-0.884,0.036,-0.001,-0.002,-26.4,-254.7,-10.2,83.31,-0.47,-149.17
0.013,-0.528,-0.884,0.037,0.0,-0.003,-27.0,-255.0,-10.05,83.3,-0.47,-149.17
0.015,-0.527,-0.883,0.034,-0.001,-0.002,-25.8,-254.55,-11.1,83.3,-0.48,-149.17
0.014,-0.529,-0.882,0.033,0.004,0.001,-25.5,-253.8,-10.8,83.29,-0.49,-149.16
0.014,-0.529,-0.882,0.037,-0.002,-0.001,-26.55,-253.35,-10.35,83.29,-0.49,-149.16
0.01,-0.529,-0.883,0.03,-0.002,-0.002,-26.55,-254.25,-10.35,83.28,-0.49,-149.16
0.013,-0.528,-0.881,0.035,0.001,-0.003,-26.55,-255.0,-10.8,83.28,-0.49,-149.16
0.017,-0.526,-0.883,0.037,0.003,-0.008,-26.7,-255.6,-10.2,83.27,-0.5,-149.16
0.017,-0.526,-0.883,0.032,0.003,-0.001,-27.45,-255.6,-10.95,83.26,-0.5,-149.16
0.011,-0.528,-0.883,0.034,-0.006,0.002,-26.7,-255.9,-9.45,83.26,-0.5,-149.16
0.005,-0.521,-0.884,0.029,-0.002,-0.007,-25.2,-255.6,-10.65,83.26,-0.49,-149.17
0.005,-0.521,-0.884,0.026,0.003,-0.002,-25.2,-255.6,-10.65,83.25,-0.49,-149.17
0.005,-0.526,-0.877,0.037,0.0,-0.001,-26.4,-254.7,-10.95,83.25,-0.48,-149.17
0.017,-0.529,-0.88,0.031,0.002,-0.006,-25.65,-253.95,-11.4,83.25,-0.49,-149.17
0.008,-0.529,-0.885,0.031,0.002,-0.003,-25.8,-254.25,-10.35,83.24,-0.48,-149.17
0.008,-0.529,-0.885,0.033,0.001,-0.001,-26.25,-255.75,-10.35,83.24,-0.48,-149.16
0.01,-0.524,-0.883,0.033,-0.001,-0.001,-26.25,-255.75,-10.35,83.23,-0.48,-149.17
0.016,-0.528,-0.884,0.027,-0.003,-0.002,-24.3,-253.8,-10.8,83.23,-0.49,-149.17
0.016,-0.528,-0.884,0.034,-0.002,0.005,-25.05,-256.05,-11.1,83.23,-0.5,-149.17
0.008,-0.521,-0.882,0.037,0.0,0.001,-26.25,-255.0,-10.05,83.23,-0.49,-149.17
0.014,-0.526,-0.884,0.033,0.001,-0.0,-27.3,-253.8,-10.05,83.22,-0.5,-149.18
0.015,-0.521,-0.882,0.038,0.003,-0.004,-27.3,-253.8,-10.05,83.21,-0.5,-149.18
0.015,-0.521,-0.882,0.034,-0.001,-0.003,-25.95,-254.4,-10.2,83.21,-0.51,-149.19
0.011,-0.531,-0.884,0.032,-0.002,-0.007,-27.0,-255.0,-12.3,83.2,-0.5,-149.18
0.01,-0.522,-0.879,0.03,-0.002,0.001,-26.4,-254.7,-11.7,83.2,-0.5,-149.19
0.009,-0.522,-0.883,0.035,-0.0,0.002,-24.9,-254.7,-10.2,83.2,-0.5,-149.19
0.009,-0.522,-0.883,0.033,0.003,0.003,-25.5,-254.55,-11.1,83.19,-0.5,-149.19
0.01,-0.524,-0.883,0.03,-0.002,-0.0,-26.55,-255.0,-10.35,83.19,-0.5,-149.2
0.011,-0.528,-0.881,0.035,0.002,-0.002,-25.95,-255.15,-9.9,83.19,-0.5,-149.19
0.011,-0.528,-0.881,0.033,0.001,-0.004,-26.7,-254.4,-9.9,83.18,-0.5,-149.19
0.01,-0.532,-0.886,0.033,0.0,-0.003,-26.7,-254.7,-10.65,83.18,-0.5,-149.19
0.018,-0.531,-0.883,0.035,0.001,0.001,-25.95,-255.6,-11.7,83.17,-0.51,-149.18
0.017,-0.528,-0.881,0.031,0.006,-0.001,-26.25,-255.3,-10.8,83.17,-0.51,-149.18
0.017,-0.528,-0.881,0.031,-0.003,0.004,-26.4,-254.7,-11.7,83.16,-0.52,-149.18
0.014,-0.524,-0.875,0.036,-0.003,0.002,-25.8,-254.25,-10.35,83.16,-0.53,-149.18
0.012,-0.527,-0.883,0.034,0.001,0.001,-25.8,-254.55,-11.55,83.16,-0.53,-149.18
0.012,-0.527,-0.883,0.036,-0.003,-0.002,-25.65,-255.9,-10.2,83.15,-0.53,-149.18
0.013,-0.524,-0.877,0.027,-0.002,-0.011,-25.65,-255.9,-10.2,83.15,-0.53,-149.17
0.014,-0.527,-0.883,0.036,-0.001,-0.006,-26.25,-254.25,-10.35,83.15,-0.53,-149.17
0.011,-0.523,-0.88,0.033,0.003,-0.002,-27.3,-255.0,-11.55,83.14,-0.53,-149.18
0.011,-0.523,-0.88,0.034,0.001,0.001,-25.8,-255.75,-9.75,83.14,-0.53,-149.18
0.01,-0.523,-0.882,0.031,-0.002,0.003,-26.55,-255.75,-9.75,83.13,-0.53,-149.18
0.014,-0.524,-0.882,0.034,-0.0,0.002,-26.55,-255.75,-9.75,83.13,-0.53,-149.18
0.014,-0.524,-0.882,0.033,-0.003,-0.004,-25.2,-255.6,-11.4,83.13,-0.54,-149.19
0.012,-0.524,-0.878,0.036,-0.001,-0.004,-26.7,-254.4,-11.4,83.12,-0.54,-149.19
0.012,-0.528,-0.876,0.033,0.001,-0.003,-25.8,-254.25,-11.55,83.12,-0.54,-149.18
0.015,-0.53,-0.88,0.036,0.001,-0.004,-26.25,-253.8,-10.35,83.12,-0.54,-149.17
0.015,-0.53,-0.88,0.031,-0.002,0.0,-26.25,-253.8,-10.35,83.11,-0.55,-149.17
0.01,-0.526,-0.88,0.032,-0.007,-0.001,-26.25,-255.3,-9.75,83.11,-0.55,-149.17
0.01,-0.533,-0.886,0.029,-0.002,0.002,-25.5,-255.3,-11.1,83.11,-0.54,-149.16
0.01,-0.533,-0.886,0.035,-0.001,-0.006,-26.4,-255.9,-11.7,83.1,-0.54,-149.16
0.01,-0.53,-0.879,0.034,-0.003,-0.003,-25.8,-253.8,-10.8,83.1,-0.54,-149.15
0.007,-0.528,-0.88,0.032,-0.001,-0.007,-25.8,-253.8,-10.8,83.1,-0.53,-149.15
0.01,-0.526,-0.878,0.031,0.001,-0.004,-26.4,-254.7,-10.95,83.09,-0.53,-149.15
0.01,-0.526,-0.878,0.029,-0.003,-0.006,-26.7,-255.9,-10.65,83.09,-0.53,-149.15
0.014,-0.529,-0.879,0.03,0.001,0.003,-27.15,-255.15,-9.15,83.08,-0.53,-149.14
0.017,-0.529,-0.877,0.033,-0.004,0.001,-25.8,-255.3,-10.8,83.08,-0.54,-149.14
0.017,-0.529,-0.877,0.031,-0.001,0.001,-25.8,-255.3,-10.8,83.08,-0.55,-149.13
0.01,-0.529,-0.876,0.031,-0.001,-0.006,-27.15,-254.7,-8.7,83.07,-0.54,-149.13
0.018,-0.521,-0.88,0.031,-0.002,-0.001,-27.15,-255.15,-10.95,83.07,-0.55,-149.13
0.01,-0.524,-0.884,0.035,0.001,-0.005,-27.75,-255.0,-10.35,83.06,-0.55,-149.14
0.01,-0.524,-0.884,0.032,0.004,-0.001,-26.4,-255.15,-11.4,83.06,-0.54,-149.14
0.016,-0.523,-0.885,0.036,0.0,-0.0,-26.4,-255.15,-11.4,83.05,-0.55,-149.15
0.015,-0.531,-0.878,0.039,0.001,0.005,-25.95,-256.65,-10.95,83.05,-0.55,-149.14
0.015,-0.531,-0.878,0.033,-0.001,0.002,-26.55,-254.55,-11.1,83.05,-0.56,-149.13
0.011,-0.524,-0.879,0.036,0.002,0.001,-26.4,-255.15,-11.7,83.04,-0.56,-149.13
0.012,-0.528,-0.886,0.037,-0.002,-0.006,-26.25,-253.8,-9.75,83.04,-0.56,-149.14
0.008,-0.528,-0.882,0.032,0.0,-0.006,-26.25,-253.8,-9.75,83.04,-0.55,-149.13
0.008,-0.528,-0.882,0.039,-0.0,-0.003,-26.25,-253.8,-9.75,83.03,-0.55,-149.13
0.014,-0.524,-0.886,0.037,-0.001,-0.004,-26.4,-253.95,-9.45,83.03,-0.55,-149.14
0.011,-0.526,-0.882,0.038,-0.004,-0.0,-26.25,-255.75,-10.05,83.03,-0.55,-149.14
0.011,-0.526,-0.882,0.034,0.001,0.002,-27.0,-255.0,-9.75,83.02,-0.55,-149.14
0.01,-0.527,-0.88,0.032,-0.001,0.005,-26.25,-255.0,-10.05,83.02,-0.55,-149.14
0.015,-0.525,-0.885,0.033,-0.006,0.001,-26.25,-255.0,-10.05,83.02,-0.55,-149.14
0.014,-0.528,-0.881,0.031,0.002,0.002,-25.5,-255.0,-10.35,83.01,-0.56,-149.14
0.014,-0.528,-0.881,0.038,-0.002,-0.004,-25.95,-254.4,-10.95,83.01,-0.56,-149.14
0.01,-0.529,-0.879,0.034,0.003,0.002,-26.4,-254.4,-10.95,83.01,-0.56,-149.14
0.013,-0.526,-0.884,0.034,-0.002,0.001,-27.45,-256.35,-10.95,83.0,-0.56,-149.14
0.013,-0.526,-0.884,0.033,0.0,0.001,-27.45,-256.35,-10.95,83.0,-0.56,-149.14
0.014,-0.528,-0.883,0.028,-0.006,0.001,-26.4,-255.15,-10.95,82.99,-0.56,-149.14
0.016,-0.524,-0.883,0.035,-0.005,0.001,-26.7,-255.6,-10.95,82.99,-0.57,-149.15
0.013,-0.531,-0.881,0.035,0.001,-0.007,-25.95,-253.2,-10.2,82.99,-0.57,-149.14
0.013,-0.531,-0.881,0.033,-0.001,-0.003,-26.7,-254.7,-10.2,82.98,-0.57,-149.14
0.015,-0.526,-0.879,0.036,0.001,-0.001,-26.7,-254.7,-10.2,82.98,-0.57,-149.13
0.016,-0.53,-0.88,0.038,0.003,-0.008,-25.95,-254.4,-10.2,82.98,-0.58,-149.13
0.016,-0.53,-0.88,0.033,-0.001,0.001,-25.65,-255.6,-10.2,82.98,-0.59,-149.13
0.009,-0.525,-0.881,0.035,-0.003,-0.002,-26.4,-252.45,-10.2,82.97,-0.58,-149.13
0.012,-0.528,-0.88,0.035,0.0,-0.001,-26.55,-255.0,-10.05,82.97,-0.58,-149.13
0.014,-0.526,-0.878,0.03,-0.0,0.005,-26.55,-255.0,-10.05,82.96,-0.58,-149.12
0.014,-0.526,-0.878,0.035,-0.002,-0.003,-26.7,-255.15,-10.95,82.96,-0.58,-149.12
0.012,-0.527,-0.883,0.031,0.005,-0.002,-25.5,-255.3,-10.8,82.96,-0.59,-149.12
0.015,-0.524,-0.88,0.033,0.001,-0.004,-26.7,-254.7,-10.95,82.96,-0.59,-149.13
0.011,-0.525,-0.879,0.04,0.001,-0.002,-26.55,-255.0,-9.0,82.95,-0.59,-149.13
0.011,-0.525,-0.879,0.036,-0.003,-0.001,-26.55,-255.0,-9.0,82.95,-0.59,-149.13
0.014,-0.523,-0.881,0.029,0.0,0.003,-26.55,-255.0,-9.0,82.95,-0.59,-149.13
0.01,-0.523,-0.883,0.035,0.002,0.004,-25.95,-255.6,-11.7,82.94,-0.59,-149.14
0.01,-0.523,-0.883,0.033,0.001,0.004,-27.0,-255.0,-10.35,82.94,-0.58,-149.14
0.011,-0.523,-0.88,0.037,-0.001,0.0,-25.05,-255.75,-11.1,82.94,-0.58,-149.14
0.015,-0.525,-0.879,0.036,0.001,-0.002,-25.05,-255.75,-11.1,82.94,-0.59,-149.14
0.013,-0.526,-0.884,0.038,0.003,-0.003,-25.05,-255.75,-11.1,82.94,-0.59,-149.14
0.013,-0.526,-0.884,0.035,0.0,-0.002,-25.8,-255.3,-10.05,82.94,-0.6,-149.15
0.016,-0.526,-0.88,0.034,-0.005,-0.002,-27.0,-255.75,-10.05,82.93,-0.6,-149.15
0.01,-0.525,-0.888,0.034,0.001,-0.0,-24.9,-255.15,-10.65,82.94,-0.6,-149.15
0.01,-0.525,-0.888,0.035,-0.002,-0.001,-25.5,-254.25,-10.8,82.93,-0.6,-149.16
0.012,-0.525,-0.877,0.03,-0.001,0.0,-25.5,-254.25,-10.8,82.93,-0.6,-149.15
0.015,-0.531,-0.881,0.029,-0.001,-0.002,-26.4,-254.4,-8.7,82.93,-0.6,-149.15
0.013,-0.525,-0.885,0.032,0.005,-0.001,-27.15,-254.4,-10.95,82.93,-0.6,-149.15
0.013,-0.525,-0.885,0.037,0.002,-0.005,-26.25,-253.8,-10.35,82.92,-0.6,-149.16
0.01,-0.524,-0.886,0.039,0.001,-0.003,-26.4,-256.65,-9.9,82.92,-0.6,-149.16
0.016,-0.528,-0.88,0.037,-0.003,-0.004,-26.4,-256.65,-9.9,82.92,-0.6,-149.16
0.016,-0.528,-0.88,0.033,0.006,-0.003,-26.25,-255.75,-10.35,82.92,-0.61,-149.16
0.019,-0.527,-0.883,0.028,-0.001,-0.0,-25.2,-254.7,-10.65,82.92,-0.62,-149.16
0.014,-0.523,-0.88,0.03,0.001,-0.003,-25.8,-254.25,-10.35,82.91,-0.62,-149.16
0.016,-0.528,-0.882,0.031,0.003,-0.002,-25.65,-255.6,-9.45,82.91,-0.63,-149.16
0.016,-0.528,-0.882,0.034,-0.004,-0.004,-25.65,-255.6,-9.45,82.91,-0.63,-149.16
0.013,-0.532,-0.881,0.037,-0.005,-0.005,-25.8,-255.0,-10.35,82.91,-0.63,-149.15
0.013,-0.524,-0.878,0.031,0.002,0.002,-27.0,-255.3,-10.05,82.91,-0.63,-149.15
0.013,-0.524,-0.878,0.037,-0.0,-0.007,-26.55,-253.35,-10.65,82.9,-0.63,-149.15
0.018,-0.529,-0.879,0.036,0.005,-0.003,-25.5,-254.55,-11.55,82.9,-0.64,-149.15
0.013,-0.525,-0.878,0.033,0.005,-0.003,-25.5,-254.55,-11.55,82.9,-0.64,-149.14
0.008,-0.526,-0.883,0.032,-0.002,0.001,-25.95,-255.15,-9.9,82.9,-0.64,-149.15
0.008,-0.526,-0.883,0.031,-0.001,0.001,-25.05,-255.3,-10.8,82.9,-0.63,-149.15
0.016,-0.527,-0.881,0.035,0.0,-0.003,-25.05,-253.05,-11.1,82.9,-0.64,-149.14
0.015,-0.53,-0.879,0.033,-0.004,-0.006,-25.5,-255.0,-10.35,82.9,-0.64,-149.14
0.015,-0.53,-0.879,0.035,0.004,-0.001,-25.5,-255.0,-10.35,82.9,-0.65,-149.13
0.017,-0.523,-0.88,0.033,0.001,-0.001,-25.5,-255.0,-10.35,82.89,-0.65,-149.14
0.019,-0.527,-0.887,0.032,0.005,-0.002,-24.75,-254.55,-11.55,82.89,-0.66,-149.14
0.009,-0.523,-0.88,0.04,-0.002,-0.001,-25.95,-253.2,-10.65,82.89,-0.66,-149.14
0.009,-0.523,-0.88,0.034,-0.004,-0.002,-25.95,-253.95,-10.2,82.89,-0.65,-149.15
0.012,-0.524,-0.876,0.031,0.001,0.001,-26.7,-253.95,-10.65,82.89,-0.65,-149.14
0.017,-0.519,-0.879,0.039,-0.001,0.001,-26.7,-253.95,-10.65,82.88,-0.65,-149.15
0.017,-0.519,-0.879,0.037,-0.003,-0.005,-26.55,-255.3,-9.75,82.88,-0.66,-149.16
0.011,-0.526,-0.881,0.039,-0.001,-0.006,-26.7,-254.4,-8.4,82.88,-0.66,-149.16
0.011,-0.525,-0.883,0.037,0.001,-0.001,-25.8,-255.0,-10.05,82.88,-0.65,-149.16
0.011,-0.523,-0.881,0.038,-0.004,0.001,-25.5,-255.3,-10.05,82.87,-0.65,-149.16
0.011,-0.523,-0.881,0.035,0.0,0.001,-25.05,-255.0,-10.35,82.87,-0.65,-149.17
0.018,-0.522,-0.88,0.038,-0.002,0.002,-25.8,-255.0,-10.35,82.87,-0.66,-149.17
0.009,-0.529,-0.88,0.032,-0.002,-0.003,-24.9,-255.6,-10.65,82.87,-0.66,-149.16
0.009,-0.529,-0.88,0.036,-0.001,0.0,-26.25,-255.0,-11.55,82.87,-0.65,-149.16
0.016,-0.527,-0.882,0.032,0.003,-0.002,-25.5,-254.25,-9.75,82.87,-0.66,-149.16
0.019,-0.529,-0.883,0.031,0.003,-0.001,-25.2,-254.4,-10.65,82.87,-0.66,-149.16
0.006,-0.522,-0.88,0.038,-0.003,0.0,-25.5,-255.75,-10.05,82.87,-0.66,-149.16
0.006,-0.522,-0.88,0.032,0.008,0.003,-25.65,-255.15,-11.4,82.87,-0.65,-149.16
0.006,-0.521,-0.879,0.03,0.0,-0.001,-26.25,-254.25,-10.8,82.87,-0.64,-149.17
0.011,-0.525,-0.881,0.034,-0.0,0.003,-25.5,-256.05,-11.1,82.87,-0.64,-149.17
0.011,-0.525,-0.881,0.031,-0.003,-0.0,-25.5,-256.05,-11.1,82.86,-0.64,-149.17
0.013,-0.526,-0.88,0.033,-0.003,0.001,-24.75,-254.55,-10.8,82.87,-0.64,-149.17
0.011,-0.524,-0.882,0.029,0.003,-0.007,-25.05,-255.3,-10.35,82.87,-0.64,-149.17
0.015,-0.521,-0.88,0.038,0.006,-0.003,-25.8,-254.55,-10.05,82.86,-0.64,-149.18
0.015,-0.521,-0.88,0.033,-0.001,-0.004,-27.0,-254.25,-10.8,82.86,-0.65,-149.18
0.009,-0.526,-0.884,0.031,-0.002,-0.004,-27.0,-254.25,-10.8,82.86,-0.64,-149.18
0.011,-0.522,-0.882,0.031,-0.002,-0.002,-25.8,-254.55,-10.05,82.86,-0.64,-149.19
0.011,-0.522,-0.882,0.03,0.001,-0.002,-25.8,-255.0,-10.8,82.85,-0.64,-149.19
0.01,-0.532,-0.881,0.034,0.003,0.001,-26.7,-255.9,-11.4,82.85,-0.63,-149.18
0.01,-0.524,-0.88,0.035,-0.002,-0.002,-25.8,-253.2,-9.9,82.85,-0.63,-149.18
0.014,-0.524,-0.881,0.034,0.001,-0.005,-25.8,-255.75,-10.35,82.85,-0.63,-149.18
0.014,-0.524,-0.881,0.036,-0.001,-0.004,-26.4,-255.6,-10.2,82.85,-0.64,-149.19
0.015,-0.525,-0.882,0.034,0.0,-0.001,-27.3,-254.25,-11.55,82.84,-0.64,-149.19
0.009,-0.529,-0.886,0.032,-0.003,-0.001,-26.55,-255.75,-10.05,82.84,-0.63,-149.19
0.012,-0.525,-0.884,0.032,-0.004,0.0,-25.65,-254.7,-9.9,82.84,-0.63,-149.19
0.012,-0.525,-0.884,0.033,0.002,0.002,-25.8,-255.0,-10.35,82.84,-0.63,-149.19
0.013,-0.522,-0.885,0.03,0.0,-0.005,-25.8,-255.3,-10.35,82.84,-0.64,-149.2
0.009,-0.526,-0.883,0.033,0.002,-0.002,-26.25,-255.0,-10.35,82.83,-0.63,-149.2
0.009,-0.526,-0.883,0.035,-0.001,-0.006,-25.95,-253.2,-11.4,82.83,-0.63,-149.2
0.013,-0.53,-0.877,0.037,-0.001,0.006,-27.15,-253.95,-9.45,82.83,-0.63,-149.19
0.014,-0.525,-0.886,0.032,-0.001,-0.001,-26.4,-255.6,-11.4,82.83,-0.63,-149.19
0.012,-0.525,-0.885,0.032,0.001,-0.001,-26.55,-255.3,-10.05,82.82,-0.63,-149.2
0.012,-0.525,-0.885,0.036,-0.001,-0.006,-25.2,-255.15,-9.15,82.82,-0.63,-149.2
0.011,-0.524,-0.883,0.035,0.003,-0.002,-26.7,-255.15,-10.65,82.82,-0.63,-149.2
0.014,-0.533,-0.88,0.033,0.002,-0.002,-25.5,-253.8,-11.55,82.82,-0.63,-149.19
0.014,-0.533,-0.88,0.031,0.001,-0.005,-25.8,-255.3,-9.3,82.82,-0.63,-149.18
0.017,-0.526,-0.883,0.035,-0.003,-0.003,-25.8,-255.3,-9.3,82.82,-0.64,-149.18
0.011,-0.528,-0.88,0.033,0.0,0.004,-26.25,-254.55,-9.75,82.82,-0.64,-149.18
0.012,-0.529,-0.88,0.029,0.002,0.001,-25.95,-254.4,-10.95,82.82,-0.64,-149.17
